time,magX,magY,magZ,accX,accY,accZ,gyrX,gyrY,gyrZ,eulerX,eulerY,eulerZ,linX,linY,linZ,gravX,gravY,gravZ
1686659447.358817,4.25,-22.875,-46.5,-0.29,0.33,9.38,0.0,0.0,0.0,186.0,-1.4375,-2.0,-0.05,0.0,-0.37,-0.25,0.34,9.790000000000001
1686659447.411652,2.875,-22.875,-46.875,-0.29,0.36,9.41,0.001090830782496456,0.001090830782496456,0.0,186.0,-1.4375,-2.0,-0.03,0.02,-0.43,-0.25,0.34,9.790000000000001
1686659447.464144,3.1875,-22.5,-46.0625,-0.29,0.35000000000000003,9.370000000000001,0.0,0.0,-0.001090830782496456,186.0,-1.4375,-2.0,-0.04,0.0,-0.43,-0.25,0.34,9.790000000000001
1686659447.513055,3.5,-22.5,-47.5625,-0.27,0.37,9.41,-0.001090830782496456,0.001090830782496456,0.0,186.0,-1.4375,-2.0,-0.02,-0.02,-0.4,-0.25,0.34,9.790000000000001
1686659447.562103,3.5,-22.875,-46.0625,-0.3,0.36,9.39,-0.001090830782496456,0.001090830782496456,-0.001090830782496456,186.0,-1.4375,-2.0,-0.03,0.0,-0.44,-0.25,0.34,9.790000000000001
1686659447.614039,3.5,-23.1875,-45.5625,-0.28,0.34,9.4,0.001090830782496456,-0.001090830782496456,0.001090830782496456,186.0,-1.4375,-2.0,-0.03,0.0,-0.42,-0.25,0.34,9.790000000000001
1686659447.664347,3.5,-22.5,-47.1875,-0.3,0.33,9.39,-0.001090830782496456,0.001090830782496456,0.001090830782496456,186.0,-1.4375,-2.0,-0.04,0.01,-0.39,-0.25,0.34,9.790000000000001
1686659447.715179,3.1875,-23.5625,-46.0625,-0.27,0.33,9.38,0.0,-0.001090830782496456,0.001090830782496456,186.0,-1.4375,-2.0,-0.02,0.0,-0.42,-0.25,0.34,9.790000000000001
1686659447.764658,3.1875,-22.5,-46.375,-0.29,0.35000000000000003,9.39,-0.001090830782496456,0.001090830782496456,-0.001090830782496456,186.0,-1.4375,-2.0,-0.03,0.01,-0.42,-0.25,0.34,9.790000000000001
1686659447.814857,3.5,-22.5,-46.375,-0.31,0.36,9.42,0.0,-0.001090830782496456,0.001090830782496456,186.0,-1.4375,-2.0,-0.02,-0.02,-0.42,-0.25,0.34,9.790000000000001
1686659447.866003,3.5,-22.875,-46.375,-0.28,0.35000000000000003,9.38,0.002181661564992912,0.0,-0.001090830782496456,186.0,-1.4375,-2.0,-0.03,0.0,-0.41000000000000003,-0.25,0.34,9.790000000000001
1686659447.91662,3.1875,-24.25,-46.75,-0.3,0.33,9.39,0.001090830782496456,-0.001090830782496456,0.0,186.0,-1.4375,-2.0,-0.01,0.0,-0.43,-0.25,0.34,9.790000000000001
1686659447.966863,3.5,-22.875,-45.5625,-0.29,0.34,9.38,0.002181661564992912,-0.002181661564992912,0.001090830782496456,186.0,-1.4375,-2.0,-0.03,0.0,-0.41000000000000003,-0.25,0.34,9.790000000000001
1686659448.017144,4.25,-22.875,-47.25,-0.28,0.36,9.39,0.001090830782496456,-0.001090830782496456,-0.001090830782496456,186.0,-1.4375,-2.0,-0.03,0.0,-0.42,-0.25,0.34,9.790000000000001
1686659448.0674,3.875,-22.875,-46.75,-0.29,0.35000000000000003,9.39,0.0,0.0,0.002181661564992912,186.0,-1.4375,-2.0,-0.03,0.01,-0.43,-0.25,0.34,9.790000000000001
1686659448.118463,3.5,-22.0625,-47.1875,-0.29,0.34,9.41,0.0,-0.003272492347489368,0.002181661564992912,186.0,-1.4375,-2.0,-0.02,0.0,-0.42,-0.25,0.34,9.790000000000001
1686659448.168249,3.875,-22.875,-45.5625,-0.29,0.35000000000000003,9.39,-0.001090830782496456,-0.001090830782496456,0.0,186.0,-1.4375,-2.0,-0.06,0.0,-0.42,-0.25,0.34,9.790000000000001
1686659448.218384,3.875,-22.875,-46.75,-0.29,0.34,9.4,-0.001090830782496456,0.002181661564992912,-0.001090830782496456,186.0,-1.4375,-2.0,-0.03,0.01,-0.42,-0.25,0.34,9.790000000000001
1686659448.268583,3.1875,-22.5,-46.375,-0.28,0.34,9.39,0.002181661564992912,-0.001090830782496456,0.0,186.0,-1.4375,-2.0,-0.03,0.0,-0.44,-0.25,0.34,9.790000000000001
1686659448.319662,3.875,-22.0625,-44.75,-0.28,0.33,9.39,0.0,-0.001090830782496456,0.001090830782496456,186.0,-1.4375,-2.0,-0.02,0.0,-0.41000000000000003,-0.25,0.34,9.790000000000001
1686659448.370753,3.875,-23.1875,-47.1875,-0.28,0.35000000000000003,9.39,0.0,-0.001090830782496456,-0.001090830782496456,186.0,-1.4375,-2.0,-0.02,0.01,-0.4,-0.25,0.34,9.790000000000001
1686659448.421301,4.25,-22.0625,-46.6875,-0.29,0.35000000000000003,9.36,0.0,0.001090830782496456,0.001090830782496456,186.0,-1.4375,-2.0,-0.03,0.01,-0.42,-0.25,0.34,9.790000000000001
1686659448.47149,2.875,-22.875,-46.6875,-0.27,0.33,9.38,0.0,0.0,-0.001090830782496456,186.0,-1.4375,-2.0,-0.03,0.0,-0.43,-0.25,0.34,9.790000000000001
1686659448.522018,2.875,-23.1875,-46.75,-0.28,0.34,9.4,0.001090830782496456,0.0,0.001090830782496456,186.0,-1.4375,-2.0,-0.03,0.0,-0.43,-0.25,0.34,9.790000000000001
1686659448.573051,2.875,-22.5,-46.0,-0.27,0.33,9.41,0.0,-0.001090830782496456,0.0,186.0,-1.4375,-2.0,-0.03,0.0,-0.39,-0.25,0.34,9.790000000000001
1686659448.624468,3.5,-22.0625,-46.0625,-0.29,0.36,9.4,0.001090830782496456,0.0,0.0,186.0,-1.4375,-2.0,-0.03,0.0,-0.39,-0.25,0.34,9.790000000000001
1686659448.676364,3.1875,-22.5,-46.75,-0.29,0.35000000000000003,9.38,0.0,0.001090830782496456,0.0,186.0,-1.4375,-2.0,-0.03,0.0,-0.42,-0.25,0.34,9.790000000000001
1686659448.729852,3.1875,-22.875,-48.375,-0.28,0.36,9.39,0.001090830782496456,0.002181661564992912,0.0,186.0,-1.4375,-2.0,-0.03,0.01,-0.41000000000000003,-0.25,0.34,9.790000000000001
1686659448.782235,4.25,-22.0625,-45.5625,-0.28,0.35000000000000003,9.39,0.002181661564992912,-0.001090830782496456,0.0,186.0,-1.4375,-2.0,-0.05,0.0,-0.41000000000000003,-0.25,0.34,9.790000000000001
1686659448.835131,3.5,-22.5,-47.25,-0.3,0.36,9.38,0.0,0.0,0.0,186.0,-1.4375,-2.0,-0.03,0.01,-0.4,-0.25,0.34,9.790000000000001
1686659448.886413,2.875,-22.0625,-46.75,-0.29,0.34,9.38,-0.001090830782496456,0.002181661564992912,0.0,186.0,-1.4375,-2.0,-0.03,0.0,-0.41000000000000003,-0.25,0.34,9.790000000000001
1686659448.937163,2.875,-23.1875,-46.0,-0.28,0.34,9.370000000000001,0.0,0.001090830782496456,0.001090830782496456,186.0,-1.4375,-2.0,-0.03,-0.01,-0.38,-0.25,0.34,9.790000000000001
1686659448.987816,3.1875,-22.875,-46.375,-0.29,0.34,9.370000000000001,0.0,0.002181661564992912,0.001090830782496456,186.0,-1.4375,-2.0,-0.03,0.0,-0.38,-0.25,0.34,9.790000000000001
1686659449.037936,4.25,-21.6875,-46.75,-0.29,0.38,9.36,0.0,0.0,-0.002181661564992912,186.0,-1.4375,-2.0,-0.04,0.0,-0.41000000000000003,-0.25,0.34,9.790000000000001
1686659449.089221,3.875,-22.875,-46.375,-0.3,0.34,9.370000000000001,0.0,-0.001090830782496456,-0.002181661564992912,186.0,-1.4375,-2.0,-0.03,0.01,-0.42,-0.25,0.34,9.790000000000001
1686659449.139002,4.6875,-22.875,-46.375,-0.26,0.37,9.370000000000001,0.0,0.0,0.002181661564992912,186.0,-1.4375,-2.0,-0.04,0.01,-0.41000000000000003,-0.25,0.34,9.790000000000001
1686659449.189487,3.1875,-22.5,-47.1875,-0.27,0.35000000000000003,9.36,0.002181661564992912,-0.001090830782496456,-0.001090830782496456,186.0,-1.4375,-2.0,-0.03,-0.01,-0.41000000000000003,-0.25,0.34,9.790000000000001
1686659449.239226,3.5,-23.5625,-46.375,-0.28,0.36,9.38,-0.002181661564992912,-0.001090830782496456,0.001090830782496456,186.0,-1.4375,-2.0,-0.04,0.02,-0.38,-0.25,0.34,9.790000000000001
1686659449.288905,4.25,-23.1875,-48.0625,-0.29,0.36,9.38,-0.001090830782496456,0.002181661564992912,0.0,186.0,-1.4375,-2.0,-0.03,0.0,-0.37,-0.25,0.34,9.790000000000001
1686659449.339591,3.875,-22.0625,-45.5625,-0.27,0.34,9.38,0.0,0.001090830782496456,0.0,186.0,-1.4375,-2.0,-0.02,0.01,-0.44,-0.25,0.34,9.790000000000001
1686659449.389285,4.6875,-22.875,-45.875,-0.3,0.36,9.370000000000001,0.0,0.001090830782496456,-0.001090830782496456,186.0,-1.4375,-2.0,-0.03,0.01,-0.4,-0.25,0.34,9.790000000000001
1686659449.439291,3.875,-22.875,-46.375,-0.29,0.33,9.370000000000001,0.0,0.001090830782496456,0.001090830782496456,186.0,-1.4375,-2.0,-0.02,0.0,-0.41000000000000003,-0.25,0.34,9.790000000000001
1686659449.489497,3.875,-22.875,-46.25,,0.34,9.39,-0.001090830782496456,-0.002181661564992912,-0.001090830782496456,186.0,-1.4375,-2.0,-0.04,0.0,-0.4,-0.25,0.34,9.790000000000001
1686659449.539164,3.1875,-22.0625,-46.25,-0.31,0.35000000000000003,9.38,0.0,-0.002181661564992912,0.0,186.0,-1.4375,-2.0,-0.03,0.01,-0.39,-0.25,0.34,9.790000000000001
1686659449.589883,3.5,-22.5,-45.875,-0.26,0.33,9.39,-0.001090830782496456,0.001090830782496456,-0.002181661564992912,186.0,-1.4375,-2.0,-0.03,0.0,-0.4,-0.25,0.34,9.790000000000001
1686659449.640346,3.1875,-22.875,-46.0,-0.3,0.36,9.370000000000001,-0.001090830782496456,0.001090830782496456,0.0,186.0,-1.4375,-2.0,-0.04,0.02,-0.39,-0.25,0.34,9.790000000000001
1686659449.690422,2.875,-22.0625,-46.6875,-0.29,0.37,9.39,0.0,-0.002181661564992912,0.0,186.0,-1.4375,-2.0,-0.05,-0.01,-0.4,-0.25,0.34,-323.01
1686659449.740537,3.1875,-22.875,-48.0,-0.29,0.36,9.38,0.001090830782496456,-0.002181661564992912,0.0,186.0,-1.4375,-2.0,-0.03,0.0,-0.41000000000000003,-0.25,0.34,9.790000000000001
1686659449.790797,3.875,2025.5,-46.25,-0.27,0.35000000000000003,9.36,0.001090830782496456,-0.002181661564992912,0.001090830782496456,186.0,-1.4375,-2.0,-0.02,0.0,-0.4,-0.25,0.34,9.790000000000001
1686659449.840851,2.5,-22.875,-46.25,-0.3,0.36,9.36,0.001090830782496456,-0.001090830782496456,0.001090830782496456,186.0,-1.4375,-2.0,-0.03,0.0,-0.41000000000000003,-0.25,0.34,9.790000000000001
1686659449.891059,3.5,-22.875,-47.375,-0.3,0.36,9.34,0.0,-0.004363323129985824,-0.001090830782496456,186.0,-1.4375,-2.0,-0.04,0.02,-0.39,-0.25,0.34,9.790000000000001
1686659449.941137,4.6875,-21.6875,-46.75,-0.28,0.35000000000000003,9.38,0.001090830782496456,-0.001090830782496456,-0.001090830782496456,186.0,-1.4375,-2.0,-0.03,0.01,-0.39,-0.25,0.34,9.790000000000001
1686659449.991178,3.5,-22.875,-46.75,-0.28,0.35000000000000003,9.38,0.001090830782496456,0.0,-0.001090830782496456,186.0,-1.4375,-2.0,-0.04,0.0,-0.4,-0.25,0.34,9.790000000000001
1686659450.042752,3.1875,-22.5,-45.875,-0.3,0.35000000000000003,9.36,-0.001090830782496456,0.003272492347489368,-0.001090830782496456,186.0,-1.4375,-2.0,-0.03,0.01,-0.42,-0.25,0.34,9.790000000000001
1686659450.092935,3.1875,-22.0625,-46.6875,-0.29,0.37,9.4,-0.001090830782496456,-0.001090830782496456,0.0,186.0,-1.4375,-2.0,-0.03,0.01,-0.39,-0.25,0.34,9.790000000000001
1686659450.142388,2.875,-22.0625,-46.75,-0.28,0.36,9.36,0.002181661564992912,0.001090830782496456,0.0,186.0,-1.4375,-2.0,-0.01,0.01,-0.4,-0.25,0.34,9.790000000000001
1686659450.192102,4.25,-22.0625,-46.0,-0.27,0.33,9.36,0.0,0.0,0.0,186.0,-1.4375,-2.0,-0.04,0.0,-0.4,-0.25,0.34,9.790000000000001
1686659450.242247,4.25,-22.5,-46.25,-0.3,0.36,9.38,0.0,0.002181661564992912,-0.001090830782496456,186.0,-1.4375,-2.0,-0.03,0.0,-0.4,-0.25,0.34,9.790000000000001
1686659450.293296,4.25,-22.5,-45.875,-0.27,0.36,9.370000000000001,-0.001090830782496456,0.001090830782496456,-0.004363323129985824,186.0,-1.4375,-2.0,-0.02,0.0,-0.4,-0.25,0.34,9.790000000000001
1686659450.343065,2.5,-23.1875,-45.5,-0.29,0.34,9.36,0.0,-0.002181661564992912,0.0,186.0,-1.4375,-2.0,-0.03,0.02,-0.41000000000000003,-0.25,0.34,9.790000000000001
1686659450.392616,3.1875,-22.5,-45.0625,-0.27,0.35000000000000003,9.38,0.003272492347489368,0.001090830782496456,0.0,186.0,-1.4375,-2.0,-0.03,0.02,-0.42,-0.25,0.34,9.790000000000001
1686659450.442753,3.5,-23.1875,-46.25,-0.29,0.37,9.38,0.0,-0.001090830782496456,0.0,186.0,-1.4375,-2.0,-0.04,0.0,-0.4,-0.25,0.34,9.790000000000001
1686659450.493554,3.875,-23.1875,-46.0,-0.29,0.36,9.370000000000001,0.001090830782496456,0.0,-0.001090830782496456,186.0,-1.4375,-2.0,-0.04,-0.01,-0.39,-0.25,0.34,9.790000000000001
1686659450.543165,4.25,-22.5,-45.875,-0.29,0.35000000000000003,9.35,0.0,-0.001090830782496456,-0.001090830782496456,186.0,-1.4375,-2.0,-0.05,0.01,-0.4,-0.25,0.34,9.790000000000001
1686659450.593359,4.25,-22.5,-45.5625,-0.27,0.34,9.39,-0.001090830782496456,0.001090830782496456,-0.001090830782496456,186.0,-1.4375,-2.0,-0.02,0.0,-0.41000000000000003,-0.25,0.34,9.790000000000001
1686659450.643408,3.1875,-22.5,-47.0625,-0.27,0.34,9.36,0.0,0.001090830782496456,0.001090830782496456,186.0,-1.4375,-2.0,-0.04,0.01,-0.41000000000000003,-0.25,0.34,9.790000000000001
1686659450.693712,3.875,-23.1875,-46.375,-0.28,0.34,9.38,0.001090830782496456,0.001090830782496456,-0.002181661564992912,186.0,-1.4375,-2.0,-0.03,0.02,-0.42,-0.25,0.34,9.790000000000001
1686659450.744315,3.875,-22.875,-47.5,-0.27,0.34,9.39,-0.001090830782496456,0.001090830782496456,0.002181661564992912,186.0,-1.4375,-2.0,-0.03,0.0,-0.4,-0.25,0.34,9.790000000000001
1686659450.794173,3.5,-22.875,-47.0625,-0.27,0.35000000000000003,9.35,0.001090830782496456,0.001090830782496456,0.001090830782496456,186.0,-1.4375,-2.0,-0.03,0.02,-0.39,-0.25,0.34,9.790000000000001
1686659450.844166,3.5,-22.875,-45.875,-0.28,0.33,9.38,0.0,-0.002181661564992912,-0.001090830782496456,186.0,-1.4375,-2.0,-0.04,0.0,-0.38,-0.25,0.34,9.790000000000001
1686659450.894422,2.5,-23.5625,-45.875,-0.3,0.33,9.39,-0.002181661564992912,0.001090830782496456,0.0,186.0,-1.4375,-2.0,-0.03,0.02,-0.41000000000000003,-0.25,0.34,9.790000000000001
1686659450.944644,3.5,-22.875,-46.0,-0.27,0.34,9.38,0.0,0.001090830782496456,-0.002181661564992912,186.0,-1.4375,-2.0,-0.03,0.0,-0.4,-0.25,0.34,9.790000000000001
1686659450.995233,3.1875,-22.5,-46.25,-0.3,0.33,9.36,0.001090830782496456,-0.001090830782496456,0.0,186.0,-1.4375,-2.0,-0.04,0.0,-0.39,-0.25,0.34,9.790000000000001
1686659451.0449,5.0,-23.1875,-45.875,-0.28,0.35000000000000003,9.39,0.0,0.001090830782496456,0.002181661564992912,186.0,-1.4375,-2.0,-0.04,0.01,-0.4,-0.25,0.34,9.790000000000001
1686659451.095153,3.5,-23.1875,-46.6875,-0.29,0.35000000000000003,9.370000000000001,0.001090830782496456,0.0,0.0,186.0,-1.4375,-2.0,-0.04,0.0,-0.38,-0.25,0.34,9.790000000000001
1686659451.145297,2.5,-30.0625,-45.375,-0.3,0.35000000000000003,9.38,0.001090830782496456,0.0,-0.001090830782496456,186.0,-1.4375,-2.0,-0.04,0.0,-0.42,-0.25,0.34,9.790000000000001
1686659451.195348,3.875,-22.5,-46.0,-0.28,0.35000000000000003,9.36,0.001090830782496456,0.001090830782496456,0.0,186.0,-1.4375,-2.0,-0.04,0.01,-0.42,-0.25,0.34,9.790000000000001
1686659451.245632,2.875,-22.875,-45.875,-0.31,0.33,9.370000000000001,0.001090830782496456,0.0,0.0,186.0,-1.4375,-2.0,-0.03,0.01,-0.41000000000000003,-0.25,0.34,9.790000000000001
1686659451.295736,4.25,-22.0625,-45.5,-0.28,0.35000000000000003,9.36,0.001090830782496456,0.001090830782496456,-0.001090830782496456,186.0,-1.4375,-2.0,-0.03,0.01,-0.4,-0.25,0.34,9.790000000000001
1686659451.345941,3.5,-23.5625,-46.25,-0.28,0.31,9.370000000000001,0.002181661564992912,-0.001090830782496456,0.002181661564992912,186.0,-1.4375,-2.0,-0.03,0.0,-0.43,-0.25,0.34,9.790000000000001
1686659451.396146,4.25,-22.5,-47.0625,-0.31,0.33,9.35,-0.001090830782496456,0.002181661564992912,0.0,186.0,-1.4375,-2.0,-0.04,0.01,-0.39,-0.25,0.34,9.790000000000001
1686659451.44633,3.1875,-22.875,-46.75,-0.27,0.35000000000000003,9.38,-0.001090830782496456,0.001090830782496456,0.001090830782496456,186.0,-1.4375,-2.0,-0.03,0.0,-0.38,-0.25,0.34,9.790000000000001
1686659451.496575,3.1875,-22.0625,-45.875,-0.29,0.33,9.36,0.001090830782496456,-0.002181661564992912,-0.001090830782496456,186.0,-1.4375,-2.0,-0.03,0.0,-0.4,-0.25,0.34,-317.89
1686659451.546745,2.875,-22.5,-46.6875,-0.27,0.35000000000000003,9.38,0.0,0.001090830782496456,0.001090830782496456,186.0,-1.4375,-2.0,-0.03,0.0,-0.38,-0.25,0.34,9.790000000000001
1686659451.596843,3.1875,-22.5,-46.25,-0.29,0.35000000000000003,9.370000000000001,0.0,-0.002181661564992912,0.001090830782496456,186.0,-1.4375,-2.0,-0.04,0.0,-0.42,-0.25,0.34,9.790000000000001
1686659451.647045,3.875,-22.875,-46.25,-0.28,0.35000000000000003,9.370000000000001,0.0,0.0,0.001090830782496456,186.0,-1.4375,-2.0,-0.03,0.0,-0.39,-0.25,0.34,9.790000000000001
1686659451.697373,4.6875,-22.875,-47.0625,-0.27,0.34,9.38,-0.001090830782496456,0.001090830782496456,-0.001090830782496456,186.0,-1.4375,-2.0,-0.03,0.0,-0.39,-0.25,0.34,9.790000000000001
1686659451.747374,2.875,-23.1875,-46.75,-0.31,0.37,9.370000000000001,-0.002181661564992912,0.002181661564992912,-0.001090830782496456,186.0,-1.4375,-2.0,-0.04,0.0,-0.4,-0.25,0.34,9.790000000000001
1686659451.797599,3.875,-22.875,-46.25,-0.28,0.35000000000000003,9.36,0.0,-0.002181661564992912,0.001090830782496456,186.0,-1.4375,-2.0,-0.03,0.0,-0.4,-0.25,0.34,9.790000000000001
1686659451.847988,3.875,-23.1875,-46.25,-0.3,0.35000000000000003,9.36,0.0,0.001090830782496456,0.0,186.0,-1.4375,-2.0,-0.03,0.0,-0.41000000000000003,-0.25,0.34,9.790000000000001
1686659451.898024,5.0,-22.5,-46.6875,-0.29,0.34,9.39,0.001090830782496456,-0.002181661564992912,0.0,186.0,-1.4375,-2.0,-0.03,0.01,-0.4,-0.25,0.34,9.790000000000001
1686659451.948694,3.1875,-22.875,-46.75,-0.28,0.34,9.39,-0.001090830782496456,0.001090830782496456,-0.001090830782496456,186.0,-1.4375,-2.0,-0.02,0.0,-0.39,-0.25,0.34,9.790000000000001
1686659451.998426,3.875,-23.1875,-46.25,-0.29,0.35000000000000003,9.38,0.001090830782496456,0.0,0.001090830782496456,186.0,-1.4375,-2.0,-0.01,0.01,-0.39,-0.25,0.34,9.790000000000001
1686659452.048464,3.1875,-23.1875,-46.25,-0.3,0.33,9.370000000000001,0.001090830782496456,-0.003272492347489368,0.0,186.0,-1.4375,-2.0,-0.03,0.0,-0.39,-0.25,0.34,9.790000000000001
1686659452.098538,3.875,-22.875,-46.75,-0.29,0.35000000000000003,9.35,-0.001090830782496456,0.001090830782496456,0.0,186.0,-1.4375,-2.0,-0.02,0.01,-0.4,-0.25,0.34,9.790000000000001
1686659452.148744,2.875,-22.875,-46.75,-0.31,0.33,9.34,0.0,-0.002181661564992912,0.0,186.0,-1.4375,-2.0,-0.02,0.0,-0.4,-0.25,0.34,9.790000000000001
1686659452.200484,3.875,-22.5,-46.6875,-0.3,0.34,9.38,0.0,-0.001090830782496456,0.0,186.0,-1.4375,-2.0,-0.03,0.0,-0.38,-0.25,0.34,9.790000000000001
1686659452.249715,3.1875,-23.1875,-46.25,-0.29,0.35000000000000003,9.39,0.002181661564992912,-0.001090830782496456,0.001090830782496456,186.0,-1.4375,-2.0,-0.03,0.0,-0.4,-0.25,0.34,9.790000000000001
1686659452.300439,3.1875,-22.875,-46.6875,-0.27,0.33,9.370000000000001,0.001090830782496456,0.0,-0.001090830782496456,186.0,-1.4375,-2.0,-0.04,0.0,-0.39,-0.25,0.34,9.790000000000001
1686659452.350053,2.875,-22.875,-46.25,-0.3,0.34,9.370000000000001,0.0,0.001090830782496456,0.001090830782496456,186.0,-1.4375,-2.0,-0.03,0.0,-0.41000000000000003,-0.25,0.34,9.790000000000001
1686659452.399633,3.5,-22.5,-47.0625,-0.28,0.34,9.39,0.0,0.003272492347489368,0.0,186.0,-1.4375,-2.0,-0.02,0.01,-0.4,-0.25,0.34,9.790000000000001
1686659452.450061,2.5,-23.5625,-47.0625,-0.31,0.33,9.38,0.001090830782496456,0.0,0.001090830782496456,186.0,-1.4375,-2.0,-0.03,0.0,-0.39,-0.25,0.34,9.790000000000001
1686659452.500132,3.5,-22.875,-46.6875,-0.3,0.35000000000000003,9.36,-0.001090830782496456,0.001090830782496456,0.001090830782496456,186.0,-1.4375,-2.0,-0.04,0.01,-0.4,-0.25,0.34,9.790000000000001
1686659452.550562,2.875,-22.5,-45.875,-0.28,0.36,9.39,-0.001090830782496456,0.001090830782496456,0.001090830782496456,186.0,-1.4375,-2.0,-0.03,-0.01,-0.41000000000000003,-0.25,0.34,9.790000000000001
1686659452.600505,3.1875,-23.5625,-46.25,-0.27,0.34,9.370000000000001,-0.002181661564992912,0.001090830782496456,-0.001090830782496456,186.0,-1.4375,-2.0,-0.03,0.0,-0.41000000000000003,-0.25,0.34,9.790000000000001
1686659452.651054,4.6875,-22.5,-46.6875,-0.29,0.33,9.370000000000001,0.001090830782496456,0.001090830782496456,0.002181661564992912,186.0,-1.4375,-2.0,-0.03,0.0,-0.39,-0.25,0.34,9.790000000000001
1686659452.7007,3.5,-22.875,-47.375,-0.29,0.36,9.38,0.0,0.0,0.001090830782496456,186.0,-1.4375,-2.0,-0.04,0.0,-0.4,-0.25,0.34,9.790000000000001
1686659452.750994,2.875,-22.875,-46.25,-0.29,0.35000000000000003,9.38,-0.001090830782496456,0.001090830782496456,0.0,186.0,-1.4375,-2.0,-0.04,0.0,-0.38,-0.25,0.34,9.790000000000001
1686659452.801099,2.5,-22.0625,-45.875,-0.28,0.35000000000000003,9.39,0.0,0.0,-0.001090830782496456,186.0,-1.4375,-2.0,-0.03,0.01,-0.42,-0.25,0.34,9.790000000000001
1686659452.851246,3.1875,-23.1875,-45.875,-0.29,0.33,9.39,0.002181661564992912,0.002181661564992912,0.001090830782496456,186.0,-1.4375,-2.0,-0.02,0.01,-0.36,-0.25,0.34,9.790000000000001
1686659452.903583,3.875,-23.1875,-45.5625,-0.29,0.34,9.38,-0.001090830782496456,0.002181661564992912,0.0,186.0,-1.4375,-2.0,-0.03,0.0,-0.39,-0.25,0.34,9.790000000000001
1686659452.954024,2.875,-23.1875,-47.0625,-0.27,0.34,9.39,0.001090830782496456,0.001090830782496456,0.001090830782496456,186.0,-1.4375,-2.0,-0.05,-0.01,-0.43,-0.25,0.34,9.790000000000001
1686659453.004248,2.875,-22.875,-46.5625,-0.29,0.33,9.39,-0.001090830782496456,0.001090830782496456,-0.001090830782496456,186.0,-1.4375,-2.0,-0.03,0.0,-0.41000000000000003,-0.25,0.34,9.790000000000001
1686659453.054361,3.1875,-22.0625,-45.875,-0.27,0.33,9.38,0.001090830782496456,0.002181661564992912,0.001090830782496456,186.0,-1.4375,-2.0,-0.03,0.01,-0.39,-0.25,0.34,9.790000000000001
1686659453.104867,3.875,-23.1875,-47.0625,-0.28,0.33,9.370000000000001,0.0,0.001090830782496456,0.0,186.0,-1.4375,-2.0,-0.03,0.0,-0.4,-0.25,0.34,9.790000000000001
1686659453.156356,3.1875,-22.875,-46.6875,-0.28,0.35000000000000003,9.38,-0.001090830782496456,-0.001090830782496456,-0.001090830782496456,186.0,-1.4375,-2.0,-0.04,-0.01,-0.38,-0.25,0.34,9.790000000000001
1686659453.206834,4.25,-23.1875,-46.6875,-0.26,0.37,9.39,0.0,0.0,0.001090830782496456,186.0,-1.4375,-2.0,-0.03,0.0,-0.41000000000000003,-0.25,0.34,9.790000000000001
1686659453.257282,4.25,-22.0625,-45.875,-0.29,0.35000000000000003,9.370000000000001,-0.001090830782496456,0.001090830782496456,0.001090830782496456,186.0,-1.4375,-2.0,-0.03,0.01,-0.4,-0.25,0.34,9.790000000000001
1686659453.307689,4.25,-23.1875,-45.875,-0.26,0.36,9.38,0.001090830782496456,0.0,-0.001090830782496456,186.0,-1.4375,-2.0,-0.02,0.0,-0.41000000000000003,-0.25,0.34,9.790000000000001
1686659453.358123,3.1875,-22.5,-46.25,-0.31,1.61,9.370000000000001,0.001090830782496456,-0.001090830782496456,-0.001090830782496456,186.0,-1.4375,-2.0,-0.03,0.0,-0.39,-0.25,0.34,9.790000000000001
1686659453.40859,3.875,-23.1875,-47.375,-0.3,0.36,9.370000000000001,-0.001090830782496456,-0.001090830782496456,-0.001090830782496456,186.0,-1.4375,-2.0,-0.03,0.0,-0.39,-0.25,0.34,9.790000000000001
1686659453.459632,4.6875,-22.875,-46.25,-0.29,0.34,9.370000000000001,0.0,0.002181661564992912,0.0,186.0,-1.4375,-2.0,-0.05,0.02,-0.41000000000000003,-0.25,0.34,9.790000000000001
1686659453.509862,3.1875,-22.5,-45.75,-0.28,0.34,9.38,-0.001090830782496456,-0.001090830782496456,0.0,186.0,-1.4375,-2.0,-0.04,0.0,-0.41000000000000003,-0.25,0.34,9.790000000000001
1686659453.559939,2.875,-22.875,-46.6875,-0.29,0.33,9.38,0.0,0.002181661564992912,0.0,186.0,-1.4375,-2.0,-0.03,0.0,-0.39,-0.25,0.34,9.790000000000001
1686659453.610368,3.875,-23.1875,-45.875,-0.29,0.35000000000000003,9.38,0.0,0.0,0.001090830782496456,186.0,-1.4375,-2.0,-0.03,0.0,-0.39,-0.25,0.34,9.790000000000001
1686659453.660231,3.5,-23.1875,-45.75,-0.29,0.35000000000000003,9.370000000000001,0.0,0.0,0.0,186.0,-1.4375,-2.0,-0.03,0.02,-0.39,-0.25,0.34,9.790000000000001
1686659453.712202,3.5,-21.75,-47.0625,-0.28,0.34,9.34,0.0,0.001090830782496456,0.002181661564992912,186.0,-1.4375,-2.0,-0.03,0.0,-0.41000000000000003,-0.25,0.34,9.790000000000001
1686659453.761688,3.1875,-23.1875,-46.1875,-0.27,0.35000000000000003,9.38,0.0,0.0,0.0,186.0,-1.4375,-2.0,-0.03,0.0,-0.4,-0.25,0.34,9.790000000000001
1686659453.812413,4.6875,-22.0625,-46.25,-0.27,0.35000000000000003,9.41,0.001090830782496456,-0.001090830782496456,-0.001090830782496456,186.0,-1.4375,-2.0,-0.04,0.0,-0.41000000000000003,-0.25,0.34,9.790000000000001
1686659453.862163,3.1875,-22.0625,-46.6875,-0.27,0.36,9.38,0.0,0.001090830782496456,0.001090830782496456,186.0,-1.4375,-2.0,-0.04,0.0,-0.38,-0.25,0.34,9.790000000000001
1686659453.912472,2.5,-22.5,-47.375,-0.29,0.35000000000000003,9.36,0.0,-0.001090830782496456,0.0,186.0,-1.4375,-2.0,-0.03,0.03,-0.41000000000000003,-0.25,0.34,9.790000000000001
1686659453.963832,5.0,-21.75,-47.0625,-0.3,0.33,9.38,0.001090830782496456,0.001090830782496456,0.001090830782496456,186.0,-1.4375,-2.0,-0.03,0.0,-0.4,-0.25,0.34,9.790000000000001
1686659454.013877,3.1875,-22.0625,-45.0,-0.28,0.34,9.370000000000001,-0.001090830782496456,0.0,0.002181661564992912,186.0,-1.4375,-2.0,-0.02,0.0,-0.39,-0.25,0.34,9.790000000000001
1686659454.064074,3.875,-22.5,-45.875,-0.27,0.35000000000000003,9.370000000000001,0.0,-0.003272492347489368,0.001090830782496456,186.0,-1.4375,-2.0,-0.03,0.0,-0.4,-0.25,0.34,9.790000000000001
1686659454.114627,3.1875,-22.0625,-46.6875,-0.27,0.35000000000000003,9.39,-0.001090830782496456,0.001090830782496456,-0.001090830782496456,186.0,-1.4375,-2.0,-0.04,0.0,-0.44,-0.25,0.34,9.790000000000001
1686659454.164272,2.875,-22.5,-47.0625,-0.31,0.34,9.38,0.0,-0.002181661564992912,0.001090830782496456,186.0,-1.4375,-2.0,-0.02,0.0,-0.41000000000000003,-0.25,0.34,9.790000000000001
1686659454.214883,3.1875,-23.1875,-45.875,-0.27,0.35000000000000003,9.38,0.0,-0.003272492347489368,-0.001090830782496456,186.0,-1.4375,-2.0,-0.04,0.0,-0.42,-0.25,0.34,9.790000000000001
1686659454.26565,3.1875,-22.0625,-46.1875,-0.28,0.33,9.370000000000001,0.001090830782496456,0.002181661564992912,0.0,186.0,-1.4375,-2.0,-0.04,0.0,-0.38,-0.25,0.34,9.790000000000001
1686659454.316053,2.875,-23.1875,-45.375,-0.29,0.34,9.4,-0.001090830782496456,-0.001090830782496456,0.002181661564992912,186.0,-1.4375,-2.0,-0.03,0.0,-0.4,-0.25,0.34,9.790000000000001
1686659454.365855,3.5,-21.75,-47.375,-0.27,0.35000000000000003,9.38,0.001090830782496456,0.0,0.0,186.0,-1.4375,-2.0,-0.04,0.0,-0.41000000000000003,-0.25,0.34,9.790000000000001
1686659454.416259,3.5,-22.5,-46.6875,-0.28,0.35000000000000003,9.39,0.0,0.0,0.001090830782496456,186.0,-1.4375,-2.0,-0.03,0.01,-0.4,-0.25,0.34,9.790000000000001
1686659454.466319,3.1875,-22.5,-44.6875,-0.3,0.35000000000000003,9.39,0.0,0.001090830782496456,0.001090830782496456,186.0,-1.4375,-2.0,-0.03,0.0,-0.39,-0.25,0.34,9.790000000000001
1686659454.517841,4.25,-22.5,-46.6875,-0.31,0.33,9.370000000000001,0.001090830782496456,0.002181661564992912,-0.001090830782496456,186.0,-1.4375,-2.0,-0.03,0.0,-0.39,-0.25,0.34,9.790000000000001
1686659454.567449,3.1875,-22.0625,-46.6875,-0.28,0.35000000000000003,9.39,0.001090830782496456,0.0,0.0,186.0,-1.4375,-2.0,-0.03,0.0,-0.4,-0.25,0.34,9.790000000000001
1686659454.617946,4.6875,-22.875,-46.25,-0.28,0.35000000000000003,9.38,0.0,0.003272492347489368,-0.001090830782496456,186.0,-1.4375,-2.0,-0.02,0.0,-0.38,-0.25,0.34,9.790000000000001
1686659454.667146,2.875,-22.5,-45.75,-0.29,0.35000000000000003,9.39,0.0,0.0,0.002181661564992912,186.0,-1.4375,-2.0,-0.05,0.02,-0.38,-0.25,0.34,9.790000000000001
1686659454.717324,3.5,-23.1875,-46.5625,-0.29,0.35000000000000003,9.38,0.0,-0.002181661564992912,0.0,186.0,-1.4375,-2.0,-0.03,0.0,-0.4,-0.25,0.34,9.790000000000001
1686659454.769004,3.5,-22.5,-45.875,-0.3,0.33,9.38,0.002181661564992912,0.0,-0.001090830782496456,186.0,-1.4375,-2.0,-0.03,0.0,-0.38,-0.25,0.34,9.790000000000001
1686659454.819353,3.1875,-23.5625,-46.25,-0.27,0.34,9.39,0.001090830782496456,-0.001090830782496456,0.001090830782496456,186.0,-1.4375,-2.0,-0.03,0.0,-0.39,-0.25,0.34,9.790000000000001
1686659454.869007,4.25,-22.5,-48.25,-0.29,0.34,9.39,-0.001090830782496456,-0.002181661564992912,0.001090830782496456,186.0,-1.4375,-2.0,-0.05,0.03,-0.4,-0.25,0.34,9.790000000000001
1686659454.919342,3.875,-22.5,-46.1875,-0.31,0.35000000000000003,9.38,0.001090830782496456,-0.002181661564992912,0.0,186.0,-1.4375,-2.0,-0.01,0.0,-0.4,-0.25,0.34,9.790000000000001
1686659454.968929,4.25,-22.875,-45.375,-0.28,0.33,9.38,0.0,-0.001090830782496456,-0.002181661564992912,186.0,-1.4375,-2.0,-0.03,0.0,-0.41000000000000003,-0.25,0.34,9.790000000000001
1686659455.018213,3.875,-22.5,-47.0625,-0.28,0.36,9.370000000000001,-0.001090830782496456,-0.002181661564992912,0.002181661564992912,186.0,-1.4375,-2.0,-0.03,0.02,-0.4,-0.25,0.34,9.790000000000001
1686659455.06839,3.5,-22.0625,-46.25,-0.29,0.35000000000000003,9.39,0.0,0.002181661564992912,-0.002181661564992912,186.0,-1.4375,-2.0,-0.05,0.01,-0.41000000000000003,-0.25,0.34,9.790000000000001
1686659455.118022,2.5,-22.5,-45.875,-0.28,0.35000000000000003,9.4,0.0,-0.001090830782496456,0.0,186.0,-1.4375,-2.0,-0.05,0.0,-0.39,-0.25,0.34,9.790000000000001
1686659455.167847,2.5,-23.1875,-46.25,-0.29,0.35000000000000003,9.38,0.001090830782496456,0.0,0.0,186.0,-1.4375,-2.0,-0.03,0.0,-0.39,-0.25,0.34,9.790000000000001
1686659455.218434,3.1875,-22.875,-46.25,-0.29,0.35000000000000003,9.39,0.0,-0.001090830782496456,-0.001090830782496456,186.0,-1.4375,-2.0,-0.03,0.0,-0.39,-0.25,0.34,9.790000000000001
1686659455.268145,2.875,-22.5,-47.375,-0.29,0.33,9.41,-0.003272492347489368,-0.001090830782496456,-0.002181661564992912,186.0,-1.4375,-2.0,-0.03,0.0,-0.38,-0.25,0.34,9.790000000000001
1686659455.31951,2.5,-23.5625,-46.5625,-0.29,0.34,9.39,0.002181661564992912,0.001090830782496456,0.0,186.0,-1.4375,-2.0,-0.03,0.0,-0.42,-0.25,0.34,9.790000000000001
1686659455.369339,3.875,-22.5,-46.25,-0.3,0.34,9.4,0.003272492347489368,0.0,0.001090830782496456,186.0,-1.4375,-2.0,-0.02,0.01,-0.42,-0.25,0.34,9.790000000000001
1686659455.419193,3.5,-22.875,-46.5625,-0.3,0.34,9.38,0.0,0.001090830782496456,0.001090830782496456,186.0,-1.4375,-2.0,-0.03,0.0,-0.4,-0.25,0.34,9.790000000000001
1686659455.469008,3.5,-22.875,-46.1875,-0.28,0.34,9.4,0.002181661564992912,0.002181661564992912,0.001090830782496456,186.0,-1.4375,-2.0,-0.03,0.0,-0.41000000000000003,-0.25,0.34,9.790000000000001
1686659455.519068,2.875,-22.5,-46.5625,-0.3,0.33,9.370000000000001,0.001090830782496456,-0.002181661564992912,-0.001090830782496456,186.0,-1.4375,-2.0,-0.03,0.0,-0.4,-0.25,0.34,9.790000000000001
1686659455.570252,2.875,-22.5,-45.75,-0.29,0.36,9.39,0.0,0.0,0.001090830782496456,186.0,-1.4375,-2.0,-0.04,0.01,-0.42,-0.25,0.34,9.790000000000001
1686659455.620573,3.5,-22.875,-45.375,-0.28,0.33,9.39,0.002181661564992912,-0.001090830782496456,0.0,186.0,-1.4375,-2.0,-0.02,0.01,-0.4,-0.25,0.34,9.790000000000001
1686659455.670212,3.5,-22.5,-45.75,-0.28,0.33,9.36,0.0,0.001090830782496456,-0.001090830782496456,186.0,-1.4375,-2.0,-0.02,0.0,-0.39,-0.25,0.34,9.790000000000001
1686659455.720786,2.875,-22.875,-45.375,-0.3,0.35000000000000003,9.38,-0.001090830782496456,-0.001090830782496456,-0.002181661564992912,186.0,-1.4375,-2.0,-0.05,0.0,-0.39,-0.25,0.34,9.790000000000001
1686659455.770892,3.1875,-22.875,-46.5625,-0.3,0.35000000000000003,9.370000000000001,-0.002181661564992912,0.0,-0.001090830782496456,186.0,-1.4375,-2.0,-0.03,0.0,-0.4,-0.25,0.34,9.790000000000001
1686659455.821249,3.5,-22.875,-45.0,-0.28,0.34,9.38,0.0,0.001090830782496456,-0.001090830782496456,186.0,-1.4375,-2.0,-0.03,0.0,-0.4,-0.25,0.34,9.790000000000001
1686659455.871125,2.5,-22.5,-45.75,-0.29,0.33,9.38,-0.001090830782496456,-0.003272492347489368,0.0,186.0,-1.4375,-2.0,-0.02,0.0,-0.41000000000000003,-0.25,0.34,9.790000000000001
1686659455.921392,4.25,-23.1875,-46.25,-0.29,0.36,9.38,0.001090830782496456,-0.001090830782496456,0.0,186.0,-1.4375,-2.0,-0.03,-0.01,-0.4,-0.25,0.34,9.790000000000001
1686659455.971558,3.5,-22.5,-47.375,-0.28,0.36,9.36,-0.001090830782496456,0.0,0.0,186.0,-1.4375,-2.0,-0.01,0.0,-0.42,-0.25,0.34,9.790000000000001
1686659456.021582,4.6875,-23.1875,-45.875,-0.31,0.35000000000000003,9.39,0.0,0.002181661564992912,0.001090830782496456,186.0,-1.4375,-2.0,-0.03,0.0,-0.41000000000000003,-0.25,0.34,9.790000000000001
1686659456.071725,3.1875,-23.1875,-46.25,-0.28,0.34,9.39,0.001090830782496456,0.001090830782496456,-0.003272492347489368,186.0,-1.4375,-2.0,-0.04,0.0,-0.41000000000000003,-0.25,0.34,9.790000000000001
1686659456.123585,5.0,-22.0625,-45.75,-0.3,0.34,9.36,0.0,-0.001090830782496456,-0.001090830782496456,186.0,-1.4375,-2.0,-0.02,0.0,-0.4,-0.25,0.34,9.790000000000001
1686659456.173448,3.5,-22.875,-46.6875,-0.27,0.34,9.4,0.0,0.0,0.0,186.0,-1.4375,-2.0,-0.03,0.01,-0.39,-0.25,0.34,9.790000000000001
1686659456.22392,3.1875,-22.5,-47.375,-0.29,0.36,9.41,0.001090830782496456,-0.003272492347489368,0.0,186.0,-1.4375,-2.0,-0.02,0.0,-0.38,-0.25,0.34,9.790000000000001
1686659456.273582,3.1875,-22.5,-45.375,-0.28,0.36,9.38,0.001090830782496456,0.003272492347489368,0.001090830782496456,186.0,-1.4375,-2.0,-0.04,0.0,-0.41000000000000003,-0.25,0.34,9.790000000000001
1686659456.323761,4.25,-22.875,-47.0625,-0.26,0.34,9.370000000000001,-0.001090830782496456,0.003272492347489368,0.001090830782496456,186.0,-1.4375,-2.0,-0.03,0.04,-0.4,-0.25,0.34,9.790000000000001
1686659456.374456,4.25,-22.5,-45.375,-0.29,0.34,9.38,-0.001090830782496456,0.0,-0.001090830782496456,186.0,-1.4375,-2.0,-0.02,0.0,-0.39,-0.25,0.34,9.790000000000001
1686659456.42483,3.5,-22.0625,-46.25,-0.27,0.34,9.370000000000001,0.0,0.0,-0.002181661564992912,186.0,-1.4375,-2.0,-0.03,0.02,-0.41000000000000003,-0.25,0.34,9.790000000000001
1686659456.474765,3.5,-23.1875,-46.25,-0.29,0.34,9.39,-0.001090830782496456,0.0,-0.001090830782496456,186.0,-1.4375,-2.0,-0.05,0.01,-0.4,-0.25,0.34,9.790000000000001
1686659456.52464,4.6875,-22.5,-47.0625,-0.28,0.34,9.39,0.001090830782496456,-0.001090830782496456,0.0,186.0,-1.4375,-2.0,-0.03,0.0,-0.4,-0.25,0.34,9.790000000000001
1686659456.574612,3.5,-22.875,-46.1875,-0.29,0.36,9.39,0.0,-0.001090830782496456,0.0,186.0,-1.4375,-2.0,-0.02,1.28,-0.39,-0.25,0.34,9.790000000000001
1686659456.623986,2.875,-23.1875,-47.375,-0.29,0.35000000000000003,9.370000000000001,0.0,0.001090830782496456,0.001090830782496456,186.0,-1.4375,-2.0,-0.05,0.01,-0.39,-0.25,0.34,9.790000000000001
1686659456.673983,4.25,-22.5,-46.5625,-0.28,0.34,9.39,0.001090830782496456,0.002181661564992912,0.0,186.0,-1.4375,-2.0,-0.02,0.0,-0.39,-0.25,0.34,9.790000000000001
1686659456.724282,3.875,-22.5,-46.25,-0.28,0.35000000000000003,9.38,0.0,-0.001090830782496456,0.0,186.0,-1.4375,-2.0,-0.03,0.0,-0.42,-0.25,0.34,9.790000000000001
1686659456.774234,3.875,-23.1875,-47.0,-0.26,0.33,9.36,-0.001090830782496456,0.0,-0.001090830782496456,186.0,-1.4375,-2.0,-0.03,0.0,-0.4,-0.25,0.34,9.790000000000001
1686659456.824527,3.1875,-22.5,-45.875,-0.28,0.36,9.39,0.0,0.0,0.0,186.0,-1.4375,-2.0,-0.02,0.01,-0.37,-0.25,0.34,9.790000000000001
1686659456.874565,4.25,-24.0,-47.375,-0.3,0.35000000000000003,9.38,0.0,0.001090830782496456,-0.001090830782496456,186.0,-1.4375,-2.0,-0.03,0.01,-0.4,-0.25,0.34,9.790000000000001
1686659456.926432,3.1875,-23.1875,-46.25,-0.29,0.34,9.39,0.0,-0.001090830782496456,-0.001090830782496456,186.0,-1.4375,-2.0,-0.02,0.0,-0.4,-0.25,0.34,9.790000000000001
1686659456.975834,3.1875,-22.0625,-45.375,-0.28,0.34,9.370000000000001,0.001090830782496456,0.001090830782496456,0.0,186.0,-1.4375,-2.0,-0.04,0.0,-0.42,-0.25,0.34,9.790000000000001
1686659457.025162,2.5,-22.5,-45.75,-0.3,0.34,9.370000000000001,-0.001090830782496456,0.0,-0.002181661564992912,186.0,-1.4375,-2.0,-0.02,0.0,-0.36,-0.25,0.34,9.790000000000001
1686659457.075119,2.5,-22.5,-47.0625,-0.28,0.33,9.370000000000001,-0.002181661564992912,-0.001090830782496456,0.001090830782496456,186.0,-1.4375,-2.0,-0.05,0.0,-0.4,-0.25,0.34,9.790000000000001
1686659457.125067,3.875,-21.75,-47.0,-0.29,0.35000000000000003,9.4,0.0,-0.001090830782496456,-0.002181661564992912,186.0,-1.4375,-2.0,-0.03,0.0,-0.39,-0.25,0.34,9.790000000000001
1686659457.17571,3.1875,-22.875,-47.375,-0.28,0.33,9.38,0.0,-0.001090830782496456,-0.001090830782496456,186.0,-1.4375,-2.0,-0.04,0.01,-0.41000000000000003,-0.25,0.34,9.790000000000001
1686659457.225867,3.1875,-23.1875,-45.375,-0.3,0.34,9.39,0.002181661564992912,0.0,0.0,186.0,-1.4375,-2.0,-0.04,0.02,-0.4,-0.25,0.34,9.790000000000001
1686659457.276012,3.875,-22.5,-46.5625,-0.29,0.34,9.370000000000001,0.001090830782496456,-0.001090830782496456,0.0,186.0,-1.4375,-2.0,-0.03,0.0,-0.4,-0.25,0.34,9.790000000000001
1686659457.326217,3.5,-22.875,-46.25,-0.29,0.37,9.38,-0.002181661564992912,0.001090830782496456,-0.001090830782496456,186.0,-1.4375,-2.0,-0.03,0.01,-0.42,-0.25,0.34,9.790000000000001
1686659457.375701,4.25,-22.875,-45.875,-0.28,0.35000000000000003,9.36,-0.001090830782496456,-0.002181661564992912,0.0,186.0,-1.4375,-2.0,-0.03,0.0,-0.4,-0.25,0.34,9.790000000000001
1686659457.425898,3.5,-23.5625,-46.5625,-0.27,0.32,9.4,-0.001090830782496456,-0.003272492347489368,-0.001090830782496456,186.0,-1.4375,-2.0,-0.03,0.0,-0.41000000000000003,-0.25,0.34,9.790000000000001
1686659457.476786,3.875,-22.0625,-47.0625,-0.3,0.36,9.35,-0.001090830782496456,-0.002181661564992912,0.001090830782496456,186.0,-1.4375,-2.0,-0.02,0.0,-0.38,-0.25,0.34,9.790000000000001
1686659457.526895,3.5,-22.5,-48.1875,-0.29,0.33,9.38,0.0,0.002181661564992912,-0.001090830782496456,186.0,-1.4375,-2.0,-0.05,0.0,-0.41000000000000003,-0.25,0.34,9.790000000000001
1686659457.577199,4.25,-22.875,-46.6875,-0.29,0.33,9.38,-0.002181661564992912,-0.001090830782496456,0.0,186.0,-1.4375,-2.0,-0.03,-0.01,-0.39,-0.25,0.34,9.790000000000001
1686659457.6282,3.875,-22.5,-47.0625,-0.29,0.33,9.39,-0.001090830782496456,-0.001090830782496456,-0.003272492347489368,186.0,-1.4375,-2.0,-0.02,0.0,-0.4,-0.25,0.34,9.790000000000001
1686659457.677388,3.5,-22.5,-45.375,-0.29,0.34,9.39,0.0,0.001090830782496456,0.0,186.0,-1.4375,-2.0,-0.02,0.0,-0.39,-0.25,0.34,9.790000000000001
1686659457.729252,3.1875,-22.0625,-46.5625,-0.28,0.34,9.39,0.001090830782496456,0.0,0.0,186.0,-1.4375,-2.0,-0.04,0.0,-0.38,-0.25,0.34,9.790000000000001
1686659457.778825,3.5,-22.5,-46.1875,-0.3,0.34,9.38,0.001090830782496456,-0.001090830782496456,0.0,186.0,-1.4375,-2.0,-0.04,0.0,-0.41000000000000003,-0.25,0.34,9.790000000000001
1686659457.829124,3.5,-22.5,-47.375,-0.29,0.34,9.4,0.0,-0.001090830782496456,0.002181661564992912,186.0,-1.4375,-2.0,-0.02,0.0,-0.4,-0.25,0.34,9.790000000000001
1686659457.878885,4.25,-23.1875,-46.5625,-0.29,0.36,9.370000000000001,0.001090830782496456,0.0,0.001090830782496456,186.0,-1.4375,-2.0,-0.04,0.0,-0.39,-0.25,0.34,9.790000000000001
1686659457.928332,3.5,-22.5,-46.1875,-0.28,0.33,9.41,0.0,0.001090830782496456,-0.001090830782496456,186.0,-1.4375,-2.0,-0.02,0.0,-0.39,-0.25,0.34,9.790000000000001
1686659457.979972,3.5,-23.1875,-46.0625,-0.29,0.37,9.38,-0.001090830782496456,0.0,0.0,186.0,-1.4375,-2.0,-0.04,0.01,-0.39,-0.25,0.34,9.790000000000001
1686659458.029669,3.5,-23.1875,-46.1875,-0.29,0.34,9.39,-0.001090830782496456,-0.001090830782496456,0.0,186.0,-1.4375,-2.0,-0.03,0.02,-0.4,-0.25,0.34,9.790000000000001
1686659458.079569,2.5,-23.5625,-46.1875,-0.28,0.35000000000000003,9.38,0.001090830782496456,0.0,0.001090830782496456,186.0,-1.4375,-2.0,-0.04,-0.01,-0.38,-0.25,0.34,9.790000000000001
1686659458.129737,3.1875,-23.1875,-47.375,-0.27,0.34,9.38,0.0,0.0,0.001090830782496456,186.0,-1.4375,-2.0,-0.03,0.0,-0.4,-0.25,0.34,9.790000000000001
1686659458.179073,4.6875,-22.0625,-46.1875,-0.28,0.33,9.39,-0.001090830782496456,0.001090830782496456,0.001090830782496456,186.0,-1.4375,-2.0,-0.03,0.01,-0.4,-0.25,0.34,9.790000000000001
1686659458.229525,4.25,-23.5625,-46.5625,-0.27,0.34,9.38,-0.002181661564992912,0.003272492347489368,0.0,186.0,-1.4375,-2.0,-0.05,0.0,-0.4,-0.25,0.34,9.790000000000001
1686659458.279492,4.25,-22.5,-47.0,-0.28,0.34,9.39,0.0,0.001090830782496456,0.0,186.0,-1.4375,-2.0,-0.04,0.01,-0.4,-0.25,0.34,9.790000000000001
1686659458.329886,3.875,-23.1875,-47.375,-0.28,0.34,9.38,0.0,0.0,0.001090830782496456,186.0,-1.4375,-2.0,-0.03,0.0,-0.42,-0.25,0.34,9.790000000000001
1686659458.37976,3.1875,-22.5,-45.375,-0.28,0.35000000000000003,9.38,0.0,0.0,0.002181661564992912,186.0,-1.4375,-2.0,-0.02,0.0,-0.4,-0.25,0.34,9.790000000000001
1686659458.43021,3.875,-22.5,-45.75,-0.31,0.34,9.38,0.001090830782496456,0.0,0.001090830782496456,186.0,-1.4375,-2.0,-0.02,-0.01,-0.39,-0.25,0.34,9.790000000000001
1686659458.480128,2.5,-22.875,-45.75,-0.29,0.33,9.370000000000001,0.0,0.001090830782496456,0.0,186.0,-1.4375,-2.0,-0.03,0.0,-0.4,-0.25,0.34,9.790000000000001
1686659458.531829,3.875,-22.875,-45.75,-0.29,0.36,9.39,0.0,0.001090830782496456,0.0,186.0,-1.4375,-2.0,-0.03,0.0,-0.41000000000000003,-0.25,0.34,9.790000000000001
1686659458.581409,3.5,-22.0625,-45.375,-0.28,0.32,9.39,-0.001090830782496456,0.001090830782496456,-0.001090830782496456,186.0,-1.4375,-2.0,-0.03,0.01,-0.42,-0.25,0.34,9.790000000000001
1686659458.631742,3.1875,-22.0625,-46.6875,-0.27,0.36,9.39,0.0,0.001090830782496456,-0.001090830782496456,186.0,-1.4375,-2.0,-0.04,-0.01,-0.39,-0.25,0.34,9.790000000000001
1686659458.680702,3.5,-22.5,-46.1875,-0.28,0.33,9.38,0.0,0.0,0.0,186.0,-1.4375,-2.0,-0.05,0.02,-0.39,-0.25,0.34,9.790000000000001
1686659458.730976,4.6875,-22.5,-46.5625,-0.29,0.33,9.39,0.0,-0.001090830782496456,-0.001090830782496456,186.0,-1.4375,-2.0,-0.03,0.0,-0.4,-0.25,0.34,9.790000000000001
1686659458.782489,3.875,-23.1875,-46.1875,-0.27,0.33,9.41,0.0,-0.003272492347489368,-0.001090830782496456,186.0,-1.4375,-2.0,-0.04,0.01,-0.4,-0.25,0.34,9.790000000000001
1686659458.832876,3.875,-23.1875,-47.75,-0.28,0.34,9.39,-0.001090830782496456,0.001090830782496456,0.0,186.0,-1.4375,-2.0,-0.03,0.01,-0.39,-0.25,0.34,9.790000000000001
1686659458.882421,2.875,-21.75,-45.75,-0.27,0.35000000000000003,9.39,0.0,0.0,0.001090830782496456,186.0,-1.4375,-2.0,0.0,0.0,-0.37,-0.25,0.34,9.790000000000001
1686659458.931828,3.5,-22.875,-46.6875,-0.28,0.35000000000000003,9.39,0.001090830782496456,0.001090830782496456,0.0,186.0,-1.4375,-2.0,-0.04,0.0,-0.38,-0.25,0.34,9.790000000000001
1686659458.981899,2.875,-23.5625,-46.5625,-0.29,0.35000000000000003,9.38,0.0,-0.001090830782496456,-0.002181661564992912,186.0,-1.4375,-2.0,-0.03,0.01,-0.4,-0.25,0.34,9.790000000000001
1686659459.032193,3.875,-22.5,-47.0,-0.28,0.35000000000000003,9.39,0.0,-0.001090830782496456,0.0,186.0,-1.4375,-2.0,-0.04,0.0,-0.39,-0.25,0.34,9.790000000000001
1686659459.082249,3.1875,-23.1875,-45.375,-0.29,0.34,9.370000000000001,0.0,0.0,-0.002181661564992912,186.0,-1.4375,-2.0,-0.04,-0.01,-0.41000000000000003,-0.25,0.34,9.790000000000001
1686659459.132514,3.875,-22.875,-46.1875,-0.29,0.34,9.36,0.001090830782496456,0.001090830782496456,-0.001090830782496456,186.0,-1.4375,-2.0,-0.03,0.0,-0.37,-0.25,0.34,9.790000000000001
1686659459.182479,3.5,-22.875,-46.5625,-0.29,0.35000000000000003,9.36,0.002181661564992912,0.001090830782496456,0.001090830782496456,186.0,-1.4375,-2.0,-0.03,0.0,-0.41000000000000003,-0.25,0.34,9.790000000000001
1686659459.232868,3.5,-23.1875,-46.1875,-0.29,0.35000000000000003,9.370000000000001,-0.001090830782496456,0.001090830782496456,0.0,186.0,-1.4375,-2.0,-0.04,-0.01,-0.39,-0.25,0.34,9.790000000000001
1686659459.282821,3.1875,-23.1875,-47.0,-0.29,0.33,9.39,-0.001090830782496456,-0.003272492347489368,-0.001090830782496456,186.0,-1.4375,-2.0,-0.05,0.02,-0.39,-0.25,0.34,9.790000000000001
1686659459.334615,4.6875,-22.875,-45.75,-0.27,0.33,9.38,-0.001090830782496456,0.0,0.0,186.0,-1.4375,-2.0,-0.04,0.01,-0.41000000000000003,-0.25,0.34,9.790000000000001
1686659459.384287,3.5,-22.875,-46.6875,-0.31,0.33,9.39,0.0,0.001090830782496456,0.001090830782496456,186.0,-1.4375,-2.0,-0.03,0.01,-0.39,-0.25,0.34,9.790000000000001
1686659459.433411,3.875,-22.875,-46.5625,-0.28,0.34,9.370000000000001,0.002181661564992912,-0.002181661564992912,-0.001090830782496456,186.0,-1.4375,-2.0,-0.04,0.01,-0.38,-0.25,0.34,9.790000000000001
1686659459.483573,4.6875,-23.1875,-46.1875,-0.28,0.35000000000000003,9.38,0.0,0.001090830782496456,0.0,186.0,-1.4375,-2.0,-0.03,0.0,-0.4,-0.25,0.34,9.790000000000001
1686659459.533843,3.875,-22.875,-45.75,-0.29,0.34,9.39,-0.001090830782496456,0.001090830782496456,-0.002181661564992912,186.0,-1.4375,-2.0,-0.03,0.0,-0.38,-0.25,0.34,9.790000000000001
1686659459.585398,2.5,-22.875,-45.75,-0.3,0.35000000000000003,9.39,0.0,0.003272492347489368,0.001090830782496456,186.0,-1.4375,-2.0,-0.03,0.0,-0.38,-0.25,0.34,9.790000000000001
1686659459.635542,3.5,-23.5625,-45.75,-0.3,0.34,9.370000000000001,0.001090830782496456,-0.001090830782496456,0.0,186.0,-1.4375,-2.0,-0.04,0.02,-0.39,-0.25,0.34,9.790000000000001
1686659459.686504,2.875,-22.875,-46.5625,-0.28,0.35000000000000003,9.38,0.001090830782496456,0.002181661564992912,0.0,186.0,-1.4375,-2.0,-0.05,0.0,-0.4,-0.25,0.34,9.790000000000001
1686659459.737138,3.5,-22.875,-46.25,-0.29,0.35000000000000003,9.39,0.001090830782496456,0.003272492347489368,0.001090830782496456,186.0,-1.4375,-2.0,-0.03,0.0,-0.4,-0.25,0.34,9.790000000000001
1686659459.787621,5.0,-23.5625,-46.5625,-0.29,0.34,9.39,0.001090830782496456,0.0,-0.001090830782496456,186.0,-1.4375,-2.0,-0.04,0.0,-0.41000000000000003,-0.25,0.34,9.790000000000001
1686659459.837853,3.1875,-22.875,-46.25,-0.26,0.35000000000000003,9.38,0.0,0.0,-0.002181661564992912,186.0,-1.4375,-2.0,-0.05,0.04,-0.39,-0.25,0.34,9.790000000000001
1686659459.889017,3.5,-22.875,-47.0,-0.28,0.35000000000000003,9.4,0.0,-0.002181661564992912,0.001090830782496456,186.0,-1.4375,-2.0,-0.05,0.0,-0.4,-0.25,0.34,9.790000000000001
1686659459.939634,2.875,-23.5625,-45.25,-0.29,0.36,9.38,-0.001090830782496456,-0.001090830782496456,-0.001090830782496456,186.0,-1.4375,-2.0,-0.03,0.0,-0.4,-0.25,0.34,9.790000000000001
1686659459.989952,4.6875,-23.1875,-47.375,-0.29,0.35000000000000003,9.36,0.001090830782496456,0.001090830782496456,0.0,186.0,-1.4375,-2.0,-0.03,0.0,-0.39,-0.25,0.34,9.790000000000001
1686659460.040115,3.1875,-23.1875,-46.5625,-0.29,0.34,9.36,0.0,0.001090830782496456,0.001090830782496456,186.0,-1.4375,-2.0,-0.05,0.0,-0.38,-0.25,0.34,9.790000000000001
1686659460.090279,2.875,-22.875,-46.1875,-0.29,0.34,9.370000000000001,0.0,0.001090830782496456,0.001090830782496456,186.0,-1.4375,-2.0,-0.05,0.0,-0.4,-0.25,0.34,9.790000000000001
1686659460.141109,2.875,-23.1875,-45.75,-0.3,0.33,9.38,0.001090830782496456,0.0,0.0,186.0,-1.4375,-2.0,-0.03,0.0,-0.39,-0.25,0.34,9.790000000000001
1686659460.191635,4.25,-22.875,-45.75,-0.28,0.35000000000000003,9.4,-0.001090830782496456,0.0,-0.001090830782496456,186.0,-1.4375,-2.0,-0.03,-0.01,-0.41000000000000003,-0.25,0.34,9.790000000000001
1686659460.242102,4.25,-22.875,-46.1875,-0.29,0.34,9.38,-0.001090830782496456,-0.001090830782496456,-0.002181661564992912,186.0,-1.4375,-2.0,-0.03,0.0,-0.4,-0.25,0.34,9.790000000000001
1686659460.292531,3.1875,-23.1875,-46.5625,-0.27,0.34,9.370000000000001,-0.001090830782496456,-0.002181661564992912,0.0,186.0,-1.4375,-2.0,-0.03,0.0,-0.41000000000000003,-0.25,0.34,9.790000000000001
1686659460.34276,3.875,-22.5,-47.25,-0.28,0.37,9.39,0.001090830782496456,-0.001090830782496456,-0.002181661564992912,186.0,-1.4375,-2.0,-0.05,-0.01,-0.39,-0.25,0.34,9.790000000000001
1686659460.393495,3.5,-22.5,-46.5625,-0.29,0.33,9.39,0.001090830782496456,0.0,0.001090830782496456,186.0,-1.4375,-2.0,-0.03,0.01,-0.39,-0.25,0.34,9.790000000000001
1686659460.443669,3.1875,-22.5,-46.1875,-0.27,0.34,9.370000000000001,0.0,0.001090830782496456,0.001090830782496456,186.0,-1.4375,-2.0,-0.03,0.0,-0.4,-0.25,0.34,9.790000000000001
1686659460.493683,3.1875,-22.875,-46.875,-0.29,0.33,9.39,0.001090830782496456,0.0,0.0,186.0,-1.4375,-2.0,-0.04,0.0,-0.4,-0.25,0.34,9.790000000000001
1686659460.543764,4.25,-23.1875,-45.75,-0.29,0.35000000000000003,9.39,0.0,-0.004363323129985824,0.0,186.0,-1.4375,-2.0,-0.03,0.01,-0.38,-0.25,0.34,9.790000000000001
1686659460.593683,3.875,-22.875,-47.0,-0.29,0.35000000000000003,9.39,0.001090830782496456,-0.001090830782496456,-0.001090830782496456,186.0,-1.4375,-2.0,-0.04,0.0,-0.41000000000000003,-0.25,0.34,9.790000000000001
1686659460.643808,4.25,-23.1875,-46.5,-0.28,0.34,9.39,-0.002181661564992912,0.001090830782496456,-0.002181661564992912,186.0,-1.4375,-2.0,-0.02,0.01,-0.39,-0.25,0.34,9.790000000000001
1686659460.694322,3.875,-23.1875,-46.0625,-0.28,0.36,9.38,0.001090830782496456,0.001090830782496456,-0.002181661564992912,186.0,-1.4375,-2.0,-0.04,0.0,-0.4,-0.25,0.34,9.790000000000001
1686659460.744587,3.1875,-22.875,-46.5625,-0.29,0.35000000000000003,9.39,-0.001090830782496456,0.0,0.0,186.0,-1.4375,-2.0,-0.03,0.01,-0.41000000000000003,-0.25,0.34,9.790000000000001
1686659460.794649,4.25,-23.1875,-46.5625,-0.3,0.35000000000000003,9.38,-0.001090830782496456,0.0,0.0,186.0,-1.4375,-2.0,-0.05,0.0,-0.4,-0.25,0.34,9.790000000000001
1686659460.844405,4.25,-22.5,-45.375,-0.29,0.34,9.4,0.001090830782496456,0.0,0.0,186.0,-1.4375,-2.0,-0.04,0.0,-0.39,-0.25,0.34,9.790000000000001
1686659460.89457,3.1875,-23.5625,-45.75,-0.28,0.34,9.39,0.002181661564992912,0.001090830782496456,0.0,186.0,-1.4375,-2.0,-0.03,0.01,-0.37,-0.25,0.34,9.790000000000001
1686659460.946454,4.6875,-23.1875,-45.75,-0.3,0.33,9.39,-0.001090830782496456,-0.001090830782496456,0.001090830782496456,186.0,-1.4375,-2.0,-0.04,0.0,-0.39,-0.25,0.34,9.790000000000001
1686659460.996728,3.1875,-22.5,-46.5625,-0.28,0.36,9.41,0.0,-0.002181661564992912,0.001090830782496456,186.0,-1.4375,-2.0,-0.01,0.01,-0.42,-0.25,0.34,9.790000000000001
1686659461.053519,3.1875,-23.5625,-45.75,-0.29,0.35000000000000003,9.4,0.0,0.001090830782496456,0.001090830782496456,186.0,-1.4375,-2.0,-0.05,0.0,-0.41000000000000003,-0.25,0.34,9.790000000000001
1686659461.103258,2.875,-22.5,-45.6875,-0.27,0.34,9.41,0.0,0.0,-0.002181661564992912,186.0,-1.4375,-2.0,-0.03,0.0,-0.41000000000000003,-0.25,0.34,9.790000000000001
1686659461.152986,3.875,-22.5,-45.6875,-0.3,0.36,9.4,-0.001090830782496456,0.001090830782496456,0.001090830782496456,186.0,-1.4375,-2.0,-0.03,0.0,-0.41000000000000003,-0.25,0.34,-317.89
1686659461.204032,3.875,-23.1875,-45.0,-0.29,0.37,9.38,0.002181661564992912,0.001090830782496456,-0.001090830782496456,186.0,-1.4375,-2.0,-0.03,0.01,-0.39,-0.25,0.34,9.790000000000001
1686659461.25474,3.1875,-22.5,-46.1875,-0.31,0.36,9.4,0.001090830782496456,-0.001090830782496456,0.0,186.0,-1.4375,-2.0,-0.04,0.01,-0.39,-0.25,0.34,9.790000000000001
1686659461.304845,3.875,-23.1875,-47.0,-0.29,0.37,9.38,0.0,0.001090830782496456,0.0,186.0,-1.4375,-2.0,-0.05,0.0,-0.4,-0.25,0.34,9.790000000000001
1686659461.355392,2.875,-22.5,-46.5625,-0.28,0.36,9.39,0.0,-0.001090830782496456,0.0,186.0,-1.4375,-2.0,-0.03,-0.01,-0.4,-0.25,0.34,9.790000000000001
1686659461.405738,3.1875,-23.5625,-45.75,-0.27,0.34,9.39,0.001090830782496456,0.001090830782496456,0.001090830782496456,186.0,-1.4375,-2.0,-0.03,0.0,-0.37,-0.25,0.34,9.790000000000001
1686659461.456003,3.875,-23.5625,-47.0,-0.29,0.36,9.370000000000001,-0.001090830782496456,0.0,0.001090830782496456,186.0,-1.4375,-2.0,-0.04,0.0,-0.4,-0.25,0.34,9.790000000000001
1686659461.506786,3.1875,-24.0,-45.75,-0.29,0.33,9.39,0.0,-0.002181661564992912,0.0,186.0,-1.4375,-2.0,-0.02,0.02,-0.39,-0.25,0.34,9.790000000000001
1686659461.55684,5.0,-22.5,-46.0625,-0.27,0.33,9.370000000000001,0.0,0.003272492347489368,0.0,186.0,-1.4375,-2.0,-0.04,0.01,-0.39,-0.25,0.34,9.790000000000001
1686659461.607016,2.5,-22.0625,-45.25,-0.28,0.34,9.42,0.0,-0.001090830782496456,0.0,186.0,-1.4375,-2.0,-0.03,0.0,-0.38,-0.25,0.34,9.790000000000001
1686659461.657523,3.5,-23.1875,-46.0625,-0.3,0.36,9.38,0.0,0.001090830782496456,0.0,186.0,-1.4375,-2.0,-0.04,0.0,-0.43,-0.25,0.34,9.790000000000001
1686659461.707352,3.5,-23.1875,-46.5625,-0.3,0.32,9.36,0.0,-0.001090830782496456,-0.001090830782496456,186.0,-1.4375,-2.0,-0.03,0.0,-0.41000000000000003,-0.25,0.34,9.790000000000001
1686659461.758141,4.6875,-23.1875,-46.1875,-0.28,0.33,9.38,0.0,-0.001090830782496456,0.0,186.0,-1.4375,-2.0,-0.04,0.03,-0.4,-0.25,0.34,9.790000000000001
1686659461.80808,2.5,-22.0625,-46.1875,-0.28,0.36,9.39,0.0,-0.001090830782496456,0.001090830782496456,186.0,-1.4375,-2.0,-0.03,0.0,-0.4,-0.25,0.34,9.790000000000001
1686659461.858355,4.6875,2024.0,-47.0,-0.29,0.33,9.4,0.0,0.002181661564992912,-0.001090830782496456,186.0,-1.4375,-2.0,-0.04,0.0,-0.4,-0.25,0.34,9.790000000000001
1686659461.908461,4.25,-22.875,-46.5625,-0.28,0.34,9.38,0.0,0.0,0.001090830782496456,186.0,-1.4375,-2.0,-0.05,0.0,-0.41000000000000003,-0.25,0.34,9.790000000000001
1686659461.959071,3.5,-23.1875,-46.0625,-0.27,0.33,9.41,-0.001090830782496456,0.0,0.001090830782496456,186.0,-1.4375,-2.0,-0.03,0.01,-0.4,-0.25,0.34,9.790000000000001
1686659462.011023,3.875,-23.1875,-46.0625,-0.29,0.34,9.39,0.001090830782496456,0.0,0.001090830782496456,186.0,-1.4375,-2.0,-0.03,0.0,-0.39,-0.25,0.34,9.790000000000001
1686659462.061268,4.25,-23.1875,-46.1875,-0.29,0.33,9.39,-0.001090830782496456,-0.001090830782496456,0.001090830782496456,186.0,-1.4375,-2.0,-0.03,0.01,-0.39,-0.25,0.34,9.790000000000001
1686659462.111379,2.875,-22.0625,-46.5625,-0.28,0.34,9.4,-0.001090830782496456,-0.003272492347489368,0.0,186.0,-1.4375,-2.0,-0.03,0.02,-0.39,-0.25,0.34,9.790000000000001
1686659462.161823,3.5,-23.1875,-45.6875,-0.28,0.33,9.41,0.002181661564992912,0.002181661564992912,0.001090830782496456,186.0,-1.4375,-2.0,-0.04,0.0,-0.39,-0.25,0.34,9.790000000000001
1686659462.211653,3.1875,-23.1875,-46.875,-0.29,0.36,9.39,0.002181661564992912,0.0,0.0,186.0,-1.4375,-2.0,-0.04,0.0,-0.41000000000000003,-0.25,0.34,9.790000000000001
1686659462.26182,3.875,-22.875,-46.5625,-0.28,0.34,9.39,0.0,0.0,0.001090830782496456,186.0,-1.4375,-2.0,-0.03,0.0,-0.39,-0.25,0.34,9.790000000000001
1686659462.312124,4.6875,-23.5625,-46.0625,-0.29,0.32,9.39,0.0,0.002181661564992912,0.0,186.0,-1.4375,-2.0,-0.04,0.02,-0.4,-0.25,0.34,9.790000000000001
1686659462.362447,3.1875,-22.875,-45.75,-0.28,0.33,9.38,0.0,0.001090830782496456,0.001090830782496456,186.0,-1.4375,-2.0,-0.04,0.0,-0.41000000000000003,-0.25,0.34,9.790000000000001
1686659462.412445,3.5,-23.5625,-45.25,-0.27,0.34,9.39,0.001090830782496456,-0.002181661564992912,0.0,186.0,-1.4375,-2.0,-0.06,0.0,-0.38,-0.25,0.34,9.790000000000001
1686659462.462674,3.5,-22.5,-46.5625,-0.29,0.35000000000000003,9.4,0.001090830782496456,0.001090830782496456,0.0,186.0,-1.4375,-2.0,-0.04,-0.02,-0.41000000000000003,-0.25,0.34,9.790000000000001
1686659462.511739,3.875,-22.875,-46.0,-0.28,0.34,9.4,-0.001090830782496456,0.001090830782496456,0.001090830782496456,186.0,-1.4375,-2.0,-0.04,0.0,-0.4,-0.25,0.34,9.790000000000001
1686659462.562984,4.25,-23.1875,-46.875,-0.28,0.35000000000000003,9.370000000000001,0.001090830782496456,-0.001090830782496456,0.001090830782496456,186.0,-1.4375,-2.0,-0.04,0.0,-0.4,-0.25,0.34,9.790000000000001
1686659462.613044,2.875,-23.1875,-46.5625,-0.28,0.33,9.4,-0.002181661564992912,0.001090830782496456,-0.001090830782496456,186.0,-1.4375,-2.0,-0.02,0.0,-0.41000000000000003,-0.25,0.34,9.790000000000001
1686659462.663366,2.5,-23.5625,-46.5625,-0.28,0.33,9.38,0.002181661564992912,-0.001090830782496456,0.0,186.0,-1.4375,-2.0,-0.03,0.0,-0.39,-0.25,0.34,9.790000000000001
1686659462.713473,4.6875,-22.5,-46.5625,-0.29,0.33,9.41,0.0,0.001090830782496456,0.0,186.0,-1.4375,-2.0,-0.03,0.01,-0.4,-0.25,0.34,9.790000000000001
1686659462.763564,3.1875,-22.5,-45.75,-0.3,0.35000000000000003,9.4,-0.001090830782496456,-0.003272492347489368,0.0,186.0,-1.4375,-2.0,-0.03,0.01,-0.43,-0.25,0.34,9.790000000000001
1686659462.814836,5.6875,-23.5625,-45.375,-0.29,0.34,9.38,0.0,0.0,-0.001090830782496456,186.0,-1.4375,-2.0,-0.04,0.0,-0.41000000000000003,-0.25,0.34,9.790000000000001
1686659462.864967,4.6875,-22.875,-45.75,-0.3,0.35000000000000003,9.39,0.0,0.002181661564992912,0.001090830782496456,186.0,-1.4375,-2.0,-0.03,0.01,-0.4,-0.25,0.34,9.790000000000001
1686659462.915045,3.875,-22.5,-46.875,-0.27,0.34,9.39,0.001090830782496456,0.0,0.001090830782496456,186.0,-1.4375,-2.0,-0.03,0.0,-0.41000000000000003,-0.25,0.34,9.790000000000001
1686659462.96524,2.875,-23.1875,-46.875,-0.27,0.35000000000000003,9.39,-0.001090830782496456,0.0,-0.001090830782496456,186.0,-1.4375,-2.0,-0.03,0.0,-0.4,-0.25,0.34,9.790000000000001
1686659463.014434,3.5,-24.0,-45.75,-0.3,0.34,9.39,0.0,0.0,-0.001090830782496456,186.0,-1.4375,-2.0,-0.05,0.01,-0.39,-0.25,0.34,9.790000000000001
1686659463.064451,4.6875,-23.1875,-46.5625,-0.29,0.36,9.39,0.001090830782496456,0.0,0.0,186.0,-1.4375,-2.0,-0.04,0.0,-0.39,-0.25,0.34,9.790000000000001
1686659463.115071,3.1875,-23.1875,-47.0,-0.26,0.34,9.38,0.001090830782496456,0.001090830782496456,-0.002181661564992912,186.0,-1.4375,-2.0,-0.04,0.0,-0.41000000000000003,-0.25,0.34,9.790000000000001
1686659463.165136,2.875,-22.875,-46.5625,-0.28,0.35000000000000003,9.39,0.0,0.0,0.0,186.0,-1.4375,-2.0,-0.03,0.0,-0.4,-0.25,0.34,9.790000000000001
1686659463.214975,3.875,-22.875,-46.5,-0.28,0.34,9.38,0.001090830782496456,-0.002181661564992912,0.001090830782496456,186.0,-1.4375,-2.0,-0.03,0.0,-0.41000000000000003,-0.25,0.34,9.790000000000001
1686659463.26621,3.5,-23.1875,-47.375,-0.29,0.36,9.370000000000001,0.0,0.0,0.0,186.0,-1.4375,-2.0,-0.02,0.0,-0.42,-0.25,0.34,9.790000000000001
1686659463.316294,3.5,-23.1875,-44.875,-0.3,0.35000000000000003,9.39,-0.001090830782496456,0.001090830782496456,0.001090830782496456,186.0,-1.4375,-2.0,-0.04,0.0,-0.41000000000000003,-0.25,0.34,9.790000000000001
1686659463.367762,4.6875,-22.875,-46.875,-0.28,0.34,9.38,0.0,0.001090830782496456,0.001090830782496456,186.0,-1.4375,-2.0,-0.03,0.0,-0.42,-0.25,0.34,9.790000000000001
1686659463.417899,3.5,-22.875,-45.75,-0.29,0.34,9.39,0.0,-0.002181661564992912,-0.001090830782496456,186.0,-1.4375,-2.0,-0.04,-0.01,-0.41000000000000003,-0.25,0.34,9.790000000000001
1686659463.468324,3.5,-22.0625,-44.875,-0.29,0.33,9.4,0.0,-0.001090830782496456,-0.001090830782496456,186.0,-1.4375,-2.0,-0.03,0.0,-0.42,-0.25,0.34,9.790000000000001
1686659463.518,4.25,-22.875,-46.0625,-0.3,0.34,9.39,0.0,0.001090830782496456,-0.001090830782496456,186.0,-1.4375,-2.0,-0.04,0.0,-0.43,-0.25,0.34,9.790000000000001
1686659463.567197,3.5,-22.5,-44.5625,-0.28,0.35000000000000003,9.38,0.001090830782496456,0.001090830782496456,-0.001090830782496456,186.0,-1.4375,-2.0,-0.03,0.0,-0.4,-0.25,0.34,9.790000000000001
1686659463.618628,4.25,-23.1875,-46.5625,-0.28,0.34,9.4,-0.001090830782496456,0.001090830782496456,0.0,186.0,-1.4375,-2.0,-0.04,0.01,-0.4,-0.25,0.34,9.790000000000001
1686659463.66883,4.6875,-22.5,-46.1875,-0.31,0.36,9.4,-0.001090830782496456,0.0,0.0,186.0,-1.4375,-2.0,-0.03,0.01,-0.41000000000000003,-0.25,0.34,9.790000000000001
1686659463.718706,3.1875,-22.875,-44.875,-0.3,0.35000000000000003,9.39,0.0,0.001090830782496456,0.001090830782496456,186.0,-1.4375,-2.0,-0.04,0.02,-0.44,-0.25,0.34,9.790000000000001
1686659463.768964,3.875,-23.5625,-45.375,-0.29,0.33,9.4,-0.001090830782496456,0.001090830782496456,0.001090830782496456,186.0,-1.4375,-2.0,-0.03,0.02,-0.41000000000000003,-0.25,0.34,9.790000000000001
1686659463.819076,3.1875,-23.1875,-47.0,-0.28,0.34,9.38,-0.002181661564992912,-0.002181661564992912,0.0,186.0,-1.4375,-2.0,-0.03,0.0,-0.41000000000000003,-0.25,0.34,9.790000000000001
1686659463.869434,5.0,-23.5625,-46.1875,-0.29,0.36,9.41,-0.001090830782496456,0.002181661564992912,-0.001090830782496456,186.0,-1.4375,-2.0,-0.03,0.01,-0.42,-0.25,0.34,9.790000000000001
1686659463.920523,3.5,-22.875,-46.0625,-0.28,0.34,9.39,0.002181661564992912,0.001090830782496456,0.0,186.0,-1.4375,-2.0,-0.03,0.03,-0.43,-0.25,0.34,9.790000000000001
1686659463.970678,3.5,-23.1875,-47.0,-0.28,0.35000000000000003,9.41,-0.001090830782496456,0.0,-0.002181661564992912,186.0,-1.4375,-2.0,-0.02,0.0,-0.41000000000000003,-0.25,0.34,9.790000000000001
1686659464.019694,3.875,-22.5,-47.375,-0.29,0.34,9.39,-0.001090830782496456,0.002181661564992912,-0.001090830782496456,186.0,-1.4375,-2.0,-0.03,0.01,-0.43,-0.25,0.34,9.790000000000001
1686659464.070081,4.25,-24.0,-45.75,-0.3,0.33,9.39,-0.001090830782496456,-0.001090830782496456,0.0,186.0,-1.4375,-2.0,-0.04,0.0,-0.43,-0.25,0.34,9.790000000000001
1686659464.120021,4.25,-23.1875,-46.0625,-0.28,0.34,9.39,-0.001090830782496456,0.0,0.0,186.0,-1.4375,-2.0,-0.05,0.01,-0.4,-0.25,0.34,9.790000000000001
1686659464.171403,3.875,-23.5625,-45.375,-0.3,0.34,9.39,0.0,-0.001090830782496456,0.0,186.0,-1.4375,-2.0,-0.03,0.0,-0.44,-0.25,0.34,9.790000000000001
1686659464.220555,3.5,-22.875,-46.1875,-0.28,0.35000000000000003,9.38,0.0,-0.001090830782496456,0.0,186.0,-1.4375,-2.0,-0.04,0.0,-0.41000000000000003,-0.25,0.34,9.790000000000001
1686659464.27098,4.25,-24.0,-46.5,-0.3,0.34,9.42,0.0,0.0,0.002181661564992912,186.0,-1.4375,-2.0,-0.04,0.0,-0.42,-0.25,0.34,9.790000000000001
1686659464.32112,4.6875,-22.875,-46.5625,-0.29,0.34,9.39,0.002181661564992912,0.001090830782496456,0.0,186.0,-1.4375,-2.0,-0.04,0.01,-0.4,-0.25,0.34,9.790000000000001
1686659464.370814,4.25,-22.875,-45.375,-0.3,0.33,9.39,-0.001090830782496456,0.002181661564992912,0.001090830782496456,186.0,-1.4375,-2.0,-0.04,0.02,-0.42,-0.25,0.34,9.790000000000001
1686659464.421334,3.875,-22.875,-45.75,-0.29,0.34,9.38,0.002181661564992912,-0.001090830782496456,0.001090830782496456,186.0,-1.4375,-2.0,-0.05,0.0,-0.43,-0.25,0.34,9.790000000000001
1686659464.471518,3.875,-23.1875,-45.0,-0.28,0.34,9.38,0.0,-0.002181661564992912,0.0,186.0,-1.4375,-2.0,-0.03,0.0,-0.42,-0.25,0.34,9.790000000000001
1686659464.521399,3.875,-22.875,-46.0625,-0.29,0.34,9.39,0.0,0.003272492347489368,-0.001090830782496456,186.0,-1.4375,-2.0,-0.03,0.0,-0.43,-0.25,0.34,9.790000000000001
1686659464.571555,2.875,-23.1875,-45.6875,-0.28,0.34,9.39,0.002181661564992912,-0.002181661564992912,0.001090830782496456,186.0,-1.4375,-2.0,-0.03,0.0,-0.44,-0.25,0.34,9.790000000000001
1686659464.621821,3.875,-22.5,-44.875,-0.28,0.33,9.38,0.0,-0.003272492347489368,-0.001090830782496456,186.0,-1.4375,-2.0,-0.03,0.0,-0.44,-0.25,0.34,9.790000000000001
1686659464.672145,3.1875,-22.875,-46.0625,-0.27,1.61,9.370000000000001,-0.001090830782496456,-0.001090830782496456,0.0,186.0,-1.4375,-2.0,-0.05,0.0,-0.41000000000000003,-0.25,0.34,9.790000000000001
1686659464.723096,3.1875,-22.5,-46.5625,-0.26,0.34,9.4,0.0,0.001090830782496456,0.0,186.0,-1.4375,-2.0,-0.03,0.01,-0.42,-0.25,0.34,9.790000000000001
1686659464.773304,3.5,-22.0625,-47.0,-0.27,0.34,9.39,0.001090830782496456,0.0,0.001090830782496456,186.0,-1.4375,-2.0,-0.03,0.0,-0.43,-0.25,0.34,9.790000000000001
1686659464.822463,3.875,-22.875,-45.75,-0.29,0.35000000000000003,9.39,0.001090830782496456,-0.002181661564992912,-0.002181661564992912,186.0,-1.4375,-2.0,-0.03,0.0,-0.42,-0.25,0.34,9.790000000000001
1686659464.8725,3.1875,-23.1875,-46.875,-0.29,0.32,9.4,0.0,0.001090830782496456,0.0,186.0,-1.4375,-2.0,-0.04,0.0,-0.41000000000000003,-0.25,0.34,9.790000000000001
1686659464.922915,5.0,-22.875,-45.75,-0.29,0.34,9.4,0.001090830782496456,0.001090830782496456,-0.001090830782496456,186.0,-1.4375,-2.0,-0.02,0.01,-0.41000000000000003,-0.25,0.34,9.790000000000001
1686659464.974529,3.1875,-23.1875,-45.25,-0.29,0.33,9.41,0.001090830782496456,-0.001090830782496456,0.0,186.0,-1.4375,-2.0,-0.04,0.0,-0.41000000000000003,-0.25,0.34,9.790000000000001
1686659465.024106,3.1875,-22.5,-45.6875,-0.29,0.35000000000000003,9.39,-0.001090830782496456,0.0,-0.001090830782496456,186.0,-1.4375,-2.0,-0.03,0.0,-0.45,-0.25,0.34,9.790000000000001
1686659465.073109,4.25,-23.1875,-47.25,-0.28,0.36,9.38,0.0,0.001090830782496456,0.001090830782496456,186.0,-1.4375,-2.0,-0.05,0.02,-0.43,-0.25,0.34,9.790000000000001
1686659465.123488,3.5,-23.1875,-46.875,-0.28,0.33,9.38,0.0,0.0,0.002181661564992912,186.0,-1.4375,-2.0,-0.03,0.0,-0.4,-0.25,0.34,9.790000000000001
1686659465.173818,3.875,-22.5,-45.25,-0.3,0.33,9.4,0.001090830782496456,0.002181661564992912,0.0,186.0,-1.4375,-2.0,-0.03,0.02,-0.41000000000000003,-0.25,0.34,9.790000000000001
1686659465.224739,3.1875,-23.1875,-45.25,-0.27,0.35000000000000003,9.39,0.002181661564992912,-0.001090830782496456,0.0,186.0,-1.4375,-2.0,-0.03,-0.01,-0.44,-0.25,0.34,9.790000000000001
1686659465.275038,4.25,-22.5,-45.375,-0.28,0.36,9.370000000000001,0.0,-0.002181661564992912,-0.002181661564992912,186.0,-1.4375,-2.0,-0.03,0.0,-0.43,-0.25,0.34,9.790000000000001
1686659465.324221,3.875,-23.1875,-46.5625,-0.28,0.33,9.39,-0.001090830782496456,-0.001090830782496456,0.0,186.0,-1.4375,-2.0,-0.04,0.01,-0.4,-0.25,0.34,9.790000000000001
1686659465.374099,5.0,-23.1875,-46.0625,-0.27,0.35000000000000003,9.370000000000001,0.0,0.0,0.001090830782496456,186.0,-1.4375,-2.0,-0.03,0.0,-0.43,-0.25,0.34,9.790000000000001
1686659465.423331,4.25,-23.5625,-45.6875,-0.28,0.35000000000000003,9.38,0.0,-0.001090830782496456,0.0,186.0,-1.4375,-2.0,-0.03,0.02,-0.41000000000000003,-0.25,0.34,9.790000000000001
1686659465.473483,3.875,-23.1875,-46.0625,-0.28,0.35000000000000003,9.38,-0.001090830782496456,-0.002181661564992912,0.0,186.0,-1.4375,-2.0,-0.02,0.0,-0.41000000000000003,-0.25,0.34,9.790000000000001
1686659465.523725,3.5,-22.5,-45.6875,-0.27,0.36,9.39,0.0,0.001090830782496456,0.001090830782496456,186.0,-1.4375,-2.0,-0.03,0.0,-0.41000000000000003,-0.25,0.34,9.790000000000001
1686659465.573688,4.25,-24.0,-45.6875,-0.29,0.33,9.4,0.0,0.003272492347489368,0.002181661564992912,186.0,-1.4375,-2.0,-0.05,0.0,-0.43,-0.25,0.34,9.790000000000001
1686659465.623926,4.25,-22.875,-45.6875,-0.29,0.35000000000000003,9.39,-0.001090830782496456,-0.002181661564992912,0.0,186.0,-1.4375,-2.0,-0.04,0.03,-0.41000000000000003,-0.25,0.34,9.790000000000001
1686659465.674173,3.875,-22.875,-45.0,-0.29,0.33,9.39,0.001090830782496456,0.001090830782496456,0.001090830782496456,186.0,-1.4375,-2.0,-0.04,0.0,-0.42,-0.25,0.34,9.790000000000001
1686659465.724494,4.25,-22.875,-46.5,-0.28,0.35000000000000003,9.370000000000001,0.002181661564992912,0.002181661564992912,0.001090830782496456,186.0,-1.4375,-2.0,-0.03,0.0,-0.41000000000000003,-0.25,0.34,9.790000000000001
1686659465.776137,2.875,-23.1875,-46.5625,-0.28,0.35000000000000003,9.36,0.001090830782496456,-0.001090830782496456,0.001090830782496456,186.0,-1.4375,-2.0,-0.02,0.0,-0.41000000000000003,-0.25,0.34,9.790000000000001
1686659465.824176,3.875,-23.1875,-46.5625,-0.27,0.35000000000000003,9.370000000000001,0.0,0.002181661564992912,-0.001090830782496456,186.0,-1.4375,-2.0,-0.03,0.0,-0.42,-0.25,0.34,9.790000000000001
1686659465.873081,3.1875,-22.5,-45.25,-0.29,0.35000000000000003,9.38,0.001090830782496456,0.003272492347489368,0.0,186.0,-1.4375,-2.0,-0.03,0.01,-0.4,-0.25,0.34,9.790000000000001
1686659465.923008,3.875,-22.875,-46.5625,-0.27,0.35000000000000003,9.38,0.001090830782496456,-0.001090830782496456,0.0,186.0,-1.4375,-2.0,-0.04,0.0,-0.4,-0.25,0.34,9.790000000000001
1686659465.973454,4.25,-23.1875,-45.375,-0.28,0.33,9.4,-0.001090830782496456,-0.002181661564992912,-0.001090830782496456,186.0,-1.4375,-2.0,-0.05,0.0,-0.39,-0.25,0.34,-317.89
1686659466.042225,3.5,2025.125,-46.1875,-0.3,0.33,9.38,0.001090830782496456,0.003272492347489368,-0.002181661564992912,186.0,-1.4375,-2.0,-0.04,-0.01,-0.38,-0.25,0.34,9.790000000000001
1686659466.09386,3.875,-23.5625,-46.5,-0.27,0.35000000000000003,9.39,-0.001090830782496456,-0.001090830782496456,-0.001090830782496456,186.0,-1.4375,-2.0,-0.03,0.01,-0.41000000000000003,-0.25,0.34,9.790000000000001
1686659466.143673,3.875,-22.875,-45.75,-0.29,0.33,9.4,0.001090830782496456,0.001090830782496456,0.0,186.0,-1.4375,-2.0,-0.03,0.0,-0.43,-0.25,0.34,9.790000000000001
1686659466.194526,3.875,-22.5,-45.75,-0.3,0.35000000000000003,9.35,0.001090830782496456,-0.001090830782496456,0.0,186.0,-1.4375,-2.0,-0.03,-0.01,-0.39,-0.25,0.34,9.790000000000001
1686659466.246213,4.6875,-23.5625,-47.0,-0.28,0.34,9.370000000000001,0.001090830782496456,0.001090830782496456,0.0,186.0,-1.4375,-2.0,-0.03,0.0,-0.38,-0.25,0.34,9.790000000000001
1686659466.296547,4.6875,-22.875,-46.1875,-0.28,0.35000000000000003,9.370000000000001,-0.001090830782496456,0.001090830782496456,0.0,186.0,-1.4375,-2.0,-0.02,0.0,-0.39,-0.25,0.34,9.790000000000001
1686659466.346823,2.875,-22.875,-44.875,-0.3,0.33,9.39,-0.001090830782496456,0.001090830782496456,0.0,186.0,-1.4375,-2.0,-0.03,0.01,-0.4,-0.25,0.34,9.790000000000001
1686659466.396918,2.875,-22.5,-45.25,-0.29,0.33,9.370000000000001,0.0,-0.001090830782496456,0.002181661564992912,186.0,-1.4375,-2.0,-0.03,1.28,-0.4,-0.25,0.34,9.790000000000001
1686659466.447133,3.875,-22.5,-46.1875,-0.31,0.34,9.36,-0.001090830782496456,-0.002181661564992912,0.0,186.0,-1.4375,-2.0,-0.03,0.0,-0.4,-0.25,0.34,9.790000000000001
1686659466.497551,3.1875,-23.5625,-46.0625,-0.29,0.35000000000000003,9.370000000000001,0.001090830782496456,-0.001090830782496456,-0.001090830782496456,186.0,-1.4375,-2.0,-0.03,0.0,-0.38,-0.25,0.34,9.790000000000001
1686659466.547491,3.875,-22.875,-46.5625,-0.28,0.35000000000000003,9.370000000000001,0.0,0.002181661564992912,-0.001090830782496456,186.0,-1.4375,-2.0,-0.03,0.0,-0.38,-0.25,0.34,9.790000000000001
1686659466.597472,5.0,-22.875,-47.0,-0.3,0.34,9.36,0.0,0.002181661564992912,0.0,186.0,-1.4375,-2.0,-0.03,0.0,-0.41000000000000003,-0.25,0.34,9.790000000000001
1686659466.647788,3.875,-22.875,-45.75,-0.28,0.36,9.39,0.0,0.001090830782496456,0.002181661564992912,186.0,-1.4375,-2.0,-0.04,0.0,-0.42,-0.25,0.34,9.790000000000001
1686659466.698001,3.5,-22.875,-47.375,-0.29,0.35000000000000003,9.39,-0.001090830782496456,-0.002181661564992912,-0.002181661564992912,186.0,-1.4375,-2.0,-0.04,0.0,-0.38,-0.25,0.34,9.790000000000001
1686659466.748898,3.875,-23.1875,-45.75,-0.29,0.33,9.41,0.001090830782496456,0.0,0.0,186.0,-1.4375,-2.0,-0.05,0.01,-0.4,-0.25,0.34,9.790000000000001
1686659466.79884,3.5,-23.1875,-46.875,-0.3,0.34,9.39,-0.001090830782496456,0.003272492347489368,-0.001090830782496456,186.0,-1.4375,-2.0,-0.03,0.0,-0.39,-0.25,0.34,9.790000000000001
1686659466.848441,3.5,-22.875,-47.0,-0.3,0.34,9.39,0.0,-0.001090830782496456,0.001090830782496456,186.0,-1.4375,-2.0,-0.04,0.0,-0.41000000000000003,-0.25,0.34,9.790000000000001
1686659466.898626,5.0,-22.875,-46.1875,-0.29,0.36,9.370000000000001,0.0,0.001090830782496456,0.0,186.0,-1.4375,-2.0,-0.03,0.02,-0.4,-0.25,0.34,9.790000000000001
1686659466.948646,3.875,-22.0625,-46.1875,-0.28,0.35000000000000003,9.38,0.0,0.001090830782496456,-0.001090830782496456,186.0,-1.4375,-2.0,-0.03,-0.01,-0.39,-0.25,0.34,9.790000000000001
1686659466.999412,3.1875,-23.5625,-47.0,-0.29,0.35000000000000003,9.39,-0.001090830782496456,0.002181661564992912,0.0,186.0,-1.4375,-2.0,-0.05,0.01,-0.4,-0.25,0.34,9.790000000000001
1686659467.048941,4.25,-22.875,-46.1875,-0.3,0.35000000000000003,9.38,0.0,0.0,0.001090830782496456,186.0,-1.4375,-2.0,-0.04,0.0,-0.4,-0.25,0.34,9.790000000000001
1686659467.099164,3.875,-22.5,-46.5625,-0.29,0.33,9.38,0.001090830782496456,0.001090830782496456,0.001090830782496456,186.0,-1.4375,-2.0,-0.05,0.0,-0.39,-0.25,0.34,9.790000000000001
1686659467.149332,2.5,-24.0,-46.1875,-0.29,0.35000000000000003,9.38,0.0,0.001090830782496456,0.002181661564992912,186.0,-1.4375,-2.0,-0.03,0.0,-0.4,-0.25,0.34,9.790000000000001
1686659467.199482,3.5,-22.875,-47.375,-0.27,0.37,9.39,0.0,0.0,-0.001090830782496456,186.0,-1.4375,-2.0,-0.04,0.01,-0.4,-0.25,0.34,9.790000000000001
1686659467.249797,4.25,-22.5,-45.75,-0.28,0.33,9.38,0.001090830782496456,0.002181661564992912,0.0,186.0,-1.4375,-2.0,-0.03,0.01,-0.4,-0.25,0.34,9.790000000000001
1686659467.300248,3.1875,-22.5,-45.375,-0.3,0.36,9.38,0.0,0.002181661564992912,0.001090830782496456,186.0,-1.4375,-2.0,-0.03,0.0,-0.39,-0.25,0.34,9.790000000000001
1686659467.349993,2.0625,-22.0625,-45.75,-0.29,0.34,9.370000000000001,0.002181661564992912,0.002181661564992912,0.0,186.0,-1.4375,-2.0,-0.03,0.01,-0.4,-0.25,0.34,9.790000000000001
1686659467.400287,2.0625,-22.875,-45.75,-0.28,0.34,9.370000000000001,0.0,0.0,-0.001090830782496456,186.0,-1.4375,-2.0,-0.03,0.0,-0.39,-0.25,0.34,9.790000000000001
1686659467.450564,3.1875,-22.5,-46.5625,-0.29,0.36,9.370000000000001,0.002181661564992912,0.001090830782496456,-0.001090830782496456,186.0,-1.4375,-2.0,-0.04,0.0,-0.42,-0.25,0.34,9.790000000000001
1686659467.501088,2.875,-22.875,-45.375,-0.29,0.35000000000000003,9.36,0.001090830782496456,0.002181661564992912,0.001090830782496456,186.0,-1.4375,-2.0,-0.03,0.0,-0.41000000000000003,-0.25,0.34,9.790000000000001
1686659467.550695,3.5,-23.1875,-45.75,-0.29,0.33,9.38,-0.001090830782496456,0.0,0.0,186.0,-1.4375,-2.0,-0.03,0.0,-0.4,-0.25,0.34,9.790000000000001
1686659467.601355,3.875,-22.875,-46.25,-0.29,0.34,9.38,0.001090830782496456,0.002181661564992912,0.0,186.0,-1.4375,-2.0,-0.05,0.0,-0.4,-0.25,0.34,9.790000000000001
1686659467.651064,3.5,-22.5,-45.875,-0.3,0.31,9.370000000000001,-0.001090830782496456,0.0,-0.001090830782496456,186.0,-1.4375,-2.0,-0.03,0.01,-0.38,-0.25,0.34,9.790000000000001
1686659467.702087,2.5,-22.875,-45.0,-0.26,0.35000000000000003,9.38,0.001090830782496456,-0.001090830782496456,-0.001090830782496456,186.0,-1.4375,-2.0,-0.03,0.0,-0.39,-0.25,0.34,9.790000000000001
1686659467.752773,4.25,-23.5625,-46.1875,-0.3,0.33,9.39,-0.001090830782496456,-0.003272492347489368,0.001090830782496456,186.0,-1.4375,-2.0,-0.03,0.0,-0.39,-0.25,0.34,9.790000000000001
1686659467.802873,4.25,-22.875,-46.25,-0.3,0.34,9.38,0.001090830782496456,0.0,0.001090830782496456,186.0,-1.4375,-2.0,-0.03,0.0,-0.37,-0.25,0.34,9.790000000000001
1686659467.853002,2.875,-22.5,-46.6875,-0.28,0.34,9.39,0.0,-0.001090830782496456,0.001090830782496456,186.0,-1.4375,-2.0,-0.04,0.01,-0.42,-0.25,0.34,9.790000000000001
1686659467.903536,4.25,-22.5,-45.375,-0.28,0.36,9.39,-0.002181661564992912,-0.001090830782496456,-0.001090830782496456,186.0,-1.4375,-2.0,-0.03,0.0,-0.38,-0.25,0.34,9.790000000000001
1686659467.954272,4.25,-23.1875,-44.875,-0.29,0.33,9.370000000000001,0.0,0.003272492347489368,-0.001090830782496456,186.0,-1.4375,-2.0,-0.04,0.0,-0.39,-0.25,0.34,9.790000000000001
1686659468.004733,3.875,-23.1875,-45.25,-0.29,0.33,9.370000000000001,-0.001090830782496456,-0.001090830782496456,0.0,186.0,-1.4375,-2.0,-0.04,0.0,-0.37,-0.25,0.34,9.790000000000001
1686659468.055126,3.875,-23.1875,-46.1875,-0.28,0.34,9.39,0.0,0.0,-0.001090830782496456,186.0,-1.4375,-2.0,-0.02,0.0,-0.41000000000000003,-0.25,0.34,9.790000000000001
1686659468.105596,3.5,-23.1875,-45.25,-0.28,0.33,9.370000000000001,-0.001090830782496456,-0.001090830782496456,0.001090830782496456,186.0,-1.4375,-2.0,-0.04,0.0,-0.39,-0.25,0.34,9.790000000000001
1686659468.156364,5.0,-22.875,-46.1875,-0.29,0.33,9.38,0.0,-0.001090830782496456,-0.001090830782496456,186.0,-1.4375,-2.0,-0.03,0.02,-0.42,-0.25,0.34,9.790000000000001
1686659468.207226,2.875,-22.5,-45.75,-0.28,0.35000000000000003,9.370000000000001,0.001090830782496456,0.001090830782496456,0.0,186.0,-1.4375,-2.0,-0.02,0.01,-0.4,-0.25,0.34,9.790000000000001
1686659468.257955,2.875,-22.5,-44.875,-0.31,0.35000000000000003,9.38,0.0,-0.002181661564992912,0.002181661564992912,186.0,-1.4375,-2.0,-0.03,0.0,-0.43,-0.25,0.34,9.790000000000001
1686659468.308471,5.0,-22.5,-45.25,-0.29,0.33,9.39,0.001090830782496456,-0.003272492347489368,0.0,186.0,-1.4375,-2.0,-0.02,0.0,-0.4,-0.25,0.34,9.790000000000001
1686659468.359099,4.6875,-21.375,-46.5,-0.28,0.35000000000000003,9.39,0.001090830782496456,0.001090830782496456,0.0,186.0,-1.4375,-2.0,-0.02,0.0,-0.39,-0.25,0.34,9.790000000000001
1686659468.409982,2.0625,-23.5625,-46.0625,-0.29,0.36,9.370000000000001,0.002181661564992912,0.0,0.0,186.0,-1.4375,-2.0,-0.04,0.0,-0.4,-0.25,0.34,9.790000000000001
1686659468.461402,4.25,-22.0625,-45.25,-0.31,0.34,9.39,0.0,-0.003272492347489368,-0.001090830782496456,186.0,-1.4375,-2.0,-0.05,0.0,-0.41000000000000003,-0.25,0.34,9.790000000000001
1686659468.511444,5.0,-22.875,-46.0625,-0.29,0.34,9.36,0.0,-0.001090830782496456,0.0,186.0,-1.4375,-2.0,-0.04,0.0,-0.41000000000000003,-0.25,0.34,9.790000000000001
1686659468.561582,3.1875,-22.875,-46.1875,-0.27,0.31,9.370000000000001,0.003272492347489368,0.0,0.001090830782496456,186.0,-1.4375,-2.0,-0.02,0.01,-0.4,-0.25,0.34,9.790000000000001
1686659468.611727,3.5,-22.5,-45.375,-0.28,0.34,9.370000000000001,0.001090830782496456,0.0,0.0,186.0,-1.4375,-2.0,-0.03,0.0,-0.39,-0.25,0.34,9.790000000000001
1686659468.663491,3.5,-22.5,-45.75,-0.28,0.34,9.38,-0.001090830782496456,-0.001090830782496456,0.0,186.0,-1.4375,-2.0,-0.03,0.0,-0.41000000000000003,-0.25,0.34,9.790000000000001
1686659468.713905,2.5,-23.1875,-47.0,-0.29,0.34,9.39,-0.001090830782496456,0.002181661564992912,-0.001090830782496456,186.0,-1.4375,-2.0,-0.03,0.0,-0.38,-0.25,0.34,9.790000000000001
1686659468.76399,4.25,-22.875,-45.25,-0.29,0.34,9.38,-0.001090830782496456,0.002181661564992912,0.0,186.0,-1.4375,-2.0,-0.03,0.0,-0.4,-0.25,0.34,9.790000000000001
1686659468.813588,3.5,-22.5,-46.0625,-0.29,0.35000000000000003,9.370000000000001,-0.001090830782496456,0.001090830782496456,0.0,186.0,-1.4375,-2.0,-0.03,0.02,-0.41000000000000003,-0.25,0.34,9.790000000000001
1686659468.864256,4.25,-22.875,-46.0625,-0.28,0.34,9.41,0.001090830782496456,-0.001090830782496456,-0.002181661564992912,186.0,-1.4375,-2.0,-0.03,0.0,-0.4,-0.25,0.34,9.790000000000001
1686659468.914963,3.5,-22.875,-45.75,-0.28,0.34,9.39,-0.002181661564992912,0.0,0.0,186.0,-1.4375,-2.0,-0.03,0.0,-0.41000000000000003,-0.25,0.34,9.790000000000001
1686659468.965179,3.875,-22.0625,-45.6875,-0.28,0.35000000000000003,9.39,0.001090830782496456,-0.001090830782496456,0.0,186.0,-1.4375,-2.0,-0.01,0.0,-0.41000000000000003,-0.25,0.34,9.790000000000001
1686659469.015074,3.1875,-23.5625,-46.5,-0.29,0.36,9.39,0.0,0.0,0.0,186.0,-1.4375,-2.0,-0.04,0.0,-0.41000000000000003,-0.25,0.34,9.790000000000001
1686659469.065282,3.5,-23.1875,-45.25,-0.27,0.35000000000000003,9.39,0.0,0.003272492347489368,0.002181661564992912,186.0,-1.4375,-2.0,-0.03,0.0,-0.4,-0.25,0.34,9.790000000000001
1686659469.115506,3.5,-23.5625,-45.75,-0.29,0.34,9.4,-0.002181661564992912,-0.001090830782496456,0.0,186.0,-1.4375,-2.0,-0.04,0.0,-0.42,-0.25,0.34,9.790000000000001
1686659469.167125,3.1875,-23.1875,-45.25,-0.27,0.35000000000000003,9.370000000000001,0.002181661564992912,0.0,0.0,186.0,-1.4375,-2.0,-0.06,0.0,-0.41000000000000003,-0.25,0.34,9.790000000000001
1686659469.216735,4.6875,-23.1875,-46.0625,-0.29,0.35000000000000003,9.370000000000001,-0.001090830782496456,0.001090830782496456,-0.001090830782496456,186.0,-1.4375,-2.0,-0.03,0.0,-0.4,-0.25,0.34,9.790000000000001
1686659469.266295,4.6875,-22.5,-46.875,-0.28,0.35000000000000003,9.39,0.001090830782496456,-0.002181661564992912,0.001090830782496456,186.0,-1.4375,-2.0,-0.04,0.01,-0.41000000000000003,-0.25,0.34,9.790000000000001
1686659469.316168,3.875,-22.5,-46.0625,-0.28,0.33,9.41,0.0,0.0,-0.001090830782496456,186.0,-1.4375,-2.0,-0.03,0.02,-0.36,-0.25,0.34,9.790000000000001
1686659469.368012,3.1875,-22.875,-46.1875,-0.28,0.34,9.39,0.001090830782496456,0.002181661564992912,-0.001090830782496456,186.0,-1.4375,-2.0,-0.03,0.0,-0.4,-0.25,0.34,9.790000000000001
1686659469.417834,3.875,-22.875,-46.0625,-0.28,0.34,9.39,0.0,0.001090830782496456,0.0,186.0,-1.4375,-2.0,-0.04,0.0,-0.39,-0.25,0.34,9.790000000000001
1686659469.468223,2.5,-22.875,-46.0625,-0.31,0.33,9.4,-0.001090830782496456,0.0,0.001090830782496456,186.0,-1.4375,-2.0,-0.03,0.01,-0.36,-0.25,0.34,9.790000000000001
1686659469.51799,3.5,-22.0625,-46.5,-0.3,0.36,9.39,0.0,-0.003272492347489368,0.0,186.0,-1.4375,-2.0,-0.03,0.0,-0.38,-0.25,0.34,9.790000000000001
1686659469.568122,4.6875,-22.5,-46.1875,-0.28,0.36,9.36,0.0,0.001090830782496456,-0.002181661564992912,186.0,-1.4375,-2.0,-0.03,0.0,-0.39,-0.25,0.34,9.790000000000001
1686659469.619415,4.25,-22.875,-45.25,-0.29,0.34,9.39,-0.002181661564992912,0.001090830782496456,-0.002181661564992912,186.0,-1.4375,-2.0,-0.05,0.0,-0.4,-0.25,0.34,9.790000000000001
1686659469.669957,3.1875,-22.875,-46.0625,-0.28,0.34,9.38,0.0,-0.001090830782496456,0.0,186.0,-1.4375,-2.0,-0.03,0.0,-0.38,-0.25,0.34,9.790000000000001
1686659469.719822,3.1875,-23.5625,-46.0625,-0.28,0.37,9.39,-0.001090830782496456,0.002181661564992912,0.002181661564992912,186.0,-1.4375,-2.0,-0.03,0.01,-0.38,-0.25,0.34,9.790000000000001
1686659469.770604,2.875,-22.875,-46.1875,-0.3,0.33,9.39,0.001090830782496456,-0.001090830782496456,0.0,186.0,-1.4375,-2.0,-0.03,0.01,-0.41000000000000003,-0.25,0.34,9.790000000000001
1686659469.820868,4.25,-23.1875,-45.0,-0.29,0.34,9.38,0.0,0.002181661564992912,0.001090830782496456,186.0,-1.4375,-2.0,-0.03,0.0,-0.4,-0.25,0.34,9.790000000000001
1686659469.871632,3.1875,-23.1875,-45.375,-0.27,0.35000000000000003,9.39,-0.001090830782496456,0.001090830782496456,-0.002181661564992912,186.0,-1.4375,-2.0,-0.05,0.01,-0.39,-0.25,0.34,9.790000000000001
1686659469.921737,4.25,-23.1875,-46.1875,-0.29,0.34,9.36,0.001090830782496456,-0.001090830782496456,-0.002181661564992912,186.0,-1.4375,-2.0,-0.03,0.02,-0.39,-0.25,0.34,9.790000000000001
1686659469.972458,3.5,-22.875,-45.6875,-0.29,0.36,9.38,0.0,0.001090830782496456,0.0,186.0,-1.4375,-2.0,-0.03,0.0,-0.38,-0.25,0.34,9.790000000000001
1686659470.022608,3.875,-22.875,-47.0,-0.31,0.35000000000000003,9.4,0.002181661564992912,-0.001090830782496456,0.003272492347489368,186.0,-1.4375,-2.0,-0.04,0.0,-0.42,-0.25,0.34,9.790000000000001
1686659470.072845,3.5,-22.5,-45.25,-0.28,0.34,9.4,-0.001090830782496456,0.0,0.002181661564992912,186.0,-1.4375,-2.0,-0.04,0.0,-0.38,-0.25,0.34,9.790000000000001
1686659470.12346,4.25,-22.5,-46.0625,-0.27,0.35000000000000003,9.39,-0.001090830782496456,0.0,0.001090830782496456,186.0,-1.4375,-2.0,-0.02,0.0,-0.39,-0.25,0.34,9.790000000000001
1686659470.174156,3.5,-22.875,-45.75,-0.28,0.35000000000000003,9.4,0.0,0.001090830782496456,0.001090830782496456,186.0,-1.4375,-2.0,-0.03,-0.01,-0.38,-0.25,0.34,9.790000000000001
1686659470.224184,4.25,-22.875,-45.75,-0.27,0.34,9.41,0.001090830782496456,0.0,0.0,186.0,-1.4375,-2.0,-0.03,0.0,-0.39,-0.25,0.34,9.790000000000001
1686659470.274667,3.1875,-22.5,-45.75,-0.3,0.34,9.39,0.0,0.0,0.0,186.0,-1.4375,-2.0,-0.04,0.0,-0.39,-0.25,0.34,9.790000000000001
1686659470.325527,4.25,-22.5,-47.75,-0.29,0.32,9.39,0.0,-0.002181661564992912,0.001090830782496456,186.0,-1.4375,-2.0,-0.03,0.0,-0.43,-0.25,0.34,9.790000000000001
1686659470.376019,3.1875,-22.875,-46.5625,-0.28,0.33,9.41,0.0,0.001090830782496456,0.0,186.0,-1.4375,-2.0,-0.04,0.01,-0.38,-0.25,0.34,9.790000000000001
1686659470.426141,2.875,-23.1875,-45.375,-0.29,0.36,9.39,0.0,0.003272492347489368,0.0,186.0,-1.4375,-2.0,-0.03,0.0,-0.38,-0.25,0.34,9.790000000000001
1686659470.476326,3.875,-23.1875,-46.5625,-0.27,0.37,9.4,0.001090830782496456,0.0,-0.001090830782496456,186.0,-1.4375,-2.0,-0.03,0.0,-0.39,-0.25,0.34,9.790000000000001
1686659470.526439,3.1875,-22.0625,-45.375,-0.29,0.35000000000000003,9.36,0.0,0.002181661564992912,0.001090830782496456,186.0,-1.4375,-2.0,-0.04,0.0,-0.42,-0.25,0.34,9.790000000000001
1686659470.576977,4.6875,-22.5,-46.1875,-0.3,0.33,9.39,-0.002181661564992912,-0.003272492347489368,0.001090830782496456,186.0,-1.4375,-2.0,-0.03,0.0,-0.4,-0.25,0.34,9.790000000000001
1686659470.626734,4.25,-22.0625,-46.1875,-0.28,0.36,9.370000000000001,0.0,0.0,0.001090830782496456,186.0,-1.4375,-2.0,-0.03,0.0,-0.39,-0.25,0.34,9.790000000000001
1686659470.677014,4.25,-22.875,-46.5625,-0.29,0.34,9.39,0.0,0.001090830782496456,0.001090830782496456,186.0,-1.4375,-2.0,-0.03,0.0,-0.38,-0.25,0.34,9.790000000000001
1686659470.727099,4.25,-22.875,-46.1875,-0.29,0.33,9.39,0.0,0.001090830782496456,-0.001090830782496456,186.0,-1.4375,-2.0,-0.04,0.0,-0.4,-0.25,0.34,9.790000000000001
1686659470.777334,3.1875,-23.1875,-46.0625,-0.28,0.33,9.38,0.001090830782496456,-0.001090830782496456,0.001090830782496456,186.0,-1.4375,-2.0,-0.04,0.0,-0.4,-0.25,0.34,9.790000000000001
1686659470.828166,2.875,-22.5,-45.75,-0.28,0.34,9.39,0.0,0.001090830782496456,0.0,186.0,-1.4375,-2.0,-0.03,0.0,-0.4,-0.25,0.34,9.790000000000001
1686659470.878554,4.25,-22.0625,-45.75,-0.3,0.36,9.39,0.0,0.002181661564992912,-0.001090830782496456,186.0,-1.4375,-2.0,-0.03,0.02,-0.4,-0.25,0.34,9.790000000000001
1686659470.928415,3.5,-22.5,-45.75,-0.3,0.33,9.38,0.0,0.0,-0.001090830782496456,186.0,-1.4375,-2.0,-0.04,0.0,-0.42,-0.25,0.34,9.790000000000001
1686659470.97856,4.25,-22.875,-45.375,-0.29,0.35000000000000003,9.36,0.0,-0.002181661564992912,0.0,186.0,-1.4375,-2.0,-0.03,0.01,-0.39,-0.25,0.34,9.790000000000001
1686659471.028532,3.875,-22.5,-45.75,-0.27,0.37,9.38,0.0,0.0,-0.001090830782496456,186.0,-1.4375,-2.0,-0.03,0.0,-0.38,-0.25,0.34,9.790000000000001
1686659471.079806,3.1875,-23.1875,-46.1875,-0.29,0.33,9.36,0.0,0.0,-0.001090830782496456,186.0,-1.4375,-2.0,-0.02,0.01,-0.38,-0.25,0.34,9.790000000000001
1686659471.12894,4.25,-22.5,-47.0,-0.3,0.36,9.38,0.001090830782496456,0.001090830782496456,0.001090830782496456,186.0,-1.4375,-2.0,-0.04,0.0,-0.39,-0.25,0.34,9.790000000000001
1686659471.178676,4.25,-22.875,-45.25,-0.3,0.35000000000000003,9.38,-0.001090830782496456,-0.001090830782496456,-0.001090830782496456,186.0,-1.4375,-2.0,-0.03,0.0,-0.38,-0.25,0.34,9.790000000000001
1686659471.228779,3.875,-22.0625,-45.375,-0.27,0.33,9.39,0.0,-0.004363323129985824,0.001090830782496456,186.0,-1.4375,-2.0,-0.03,0.0,-0.42,-0.25,0.34,9.790000000000001
1686659471.28081,3.5,-23.1875,-45.75,-0.3,0.35000000000000003,9.4,0.0,0.0,0.002181661564992912,186.0,-1.4375,-2.0,-0.04,0.0,-0.36,-0.25,0.34,9.790000000000001
1686659471.332862,3.5,-22.0625,-46.875,-0.29,0.36,9.39,0.0,0.003272492347489368,0.0,186.0,-1.4375,-2.0,-0.03,0.0,-0.4,-0.25,0.34,9.790000000000001
1686659471.381817,3.5,-23.5625,-45.25,-0.27,0.35000000000000003,9.4,-0.001090830782496456,0.1407171709420428,-0.001090830782496456,186.0,-1.4375,-2.0,-0.03,0.0,-0.41000000000000003,-0.25,0.34,9.790000000000001
1686659471.431257,3.875,-22.5,-45.25,-0.29,0.36,9.39,0.0,0.002181661564992912,0.0,186.0,-1.4375,-2.0,-0.05,-0.01,-0.36,-0.25,0.34,9.790000000000001
1686659471.481823,3.1875,-23.1875,-46.5,-0.3,0.34,9.39,-0.002181661564992912,0.001090830782496456,0.001090830782496456,186.0,-1.4375,-2.0,-0.05,0.0,-0.41000000000000003,-0.25,0.34,9.790000000000001
1686659471.532904,4.6875,-22.875,-45.6875,-0.3,0.34,9.41,0.0,-0.001090830782496456,0.001090830782496456,186.0,-1.4375,-2.0,-0.03,0.02,-0.37,-0.25,0.34,9.790000000000001
1686659471.582618,4.25,-22.5,-45.75,-0.28,0.37,9.39,0.002181661564992912,0.002181661564992912,-0.001090830782496456,186.0,-1.4375,-2.0,-0.04,-0.01,-0.41000000000000003,-0.25,0.34,9.790000000000001
1686659471.632734,4.25,-23.5625,-46.5625,-0.29,0.34,9.39,0.001090830782496456,0.0,0.002181661564992912,186.0,-1.4375,-2.0,-0.04,0.0,-0.42,-0.25,0.34,9.790000000000001
1686659471.683098,3.5,-23.1875,-45.75,-0.27,0.36,9.39,-0.001090830782496456,0.003272492347489368,0.0,186.0,-1.4375,-2.0,-0.04,0.01,-0.38,-0.25,0.34,9.790000000000001
1686659471.733122,3.875,-22.5,-45.75,-0.29,0.35000000000000003,9.39,0.001090830782496456,-0.002181661564992912,-0.001090830782496456,186.0,-1.4375,-2.0,-0.03,0.01,-0.41000000000000003,-0.25,0.34,9.790000000000001
1686659471.784215,3.5,-23.1875,-46.875,-0.28,0.33,9.39,0.0,0.001090830782496456,0.0,186.0,-1.4375,-2.0,-0.02,0.02,-0.41000000000000003,-0.25,0.34,9.790000000000001
1686659471.833643,3.5,-22.5,-44.875,-0.29,0.35000000000000003,9.39,0.001090830782496456,0.0,0.002181661564992912,186.0,-1.4375,-2.0,-0.03,0.0,-0.38,-0.25,0.34,9.790000000000001
1686659471.884032,2.0625,-21.75,-46.875,-0.27,0.36,9.43,0.0,-0.001090830782496456,-0.001090830782496456,186.0,-1.4375,-2.0,-0.04,-0.02,-0.42,-0.25,0.34,9.790000000000001
1686659471.933822,4.25,-22.5,-46.5,-0.28,0.35000000000000003,9.39,0.0,0.0,0.002181661564992912,186.0,-1.4375,-2.0,-0.03,0.0,-0.39,-0.25,0.34,9.790000000000001
1686659471.98418,3.1875,-22.5,-45.25,-0.29,0.36,9.38,-0.001090830782496456,0.002181661564992912,-0.001090830782496456,186.0,-1.4375,-2.0,-0.05,-0.01,-0.39,-0.25,0.34,9.790000000000001
1686659472.034119,3.5,-22.875,-46.0625,-0.28,0.34,9.39,-0.001090830782496456,0.0,0.0,186.0,-1.4375,-2.0,-0.04,-0.02,-0.4,-0.25,0.34,9.790000000000001
1686659472.085322,3.875,-23.1875,-46.0625,-0.29,0.34,9.39,-0.001090830782496456,0.0,0.001090830782496456,186.0,-1.4375,-2.0,-0.05,0.0,-0.43,-0.25,0.34,9.790000000000001
1686659472.135465,3.1875,-22.5,-46.1875,-0.3,0.35000000000000003,9.39,-0.001090830782496456,-0.002181661564992912,0.0,186.0,-1.4375,-2.0,-0.02,-0.01,-0.41000000000000003,-0.25,0.34,9.790000000000001
1686659472.185642,3.5,-22.875,-46.0625,-0.27,0.34,9.4,0.0,0.002181661564992912,-0.001090830782496456,186.0,-1.4375,-2.0,-0.03,-0.01,-0.4,-0.25,0.34,9.790000000000001
1686659472.23558,2.5,-22.5,-45.75,-0.3,0.33,9.39,-0.001090830782496456,-0.002181661564992912,0.0,186.0,-1.4375,-2.0,-0.02,0.0,-0.39,-0.25,0.34,9.790000000000001
1686659472.285905,3.875,-22.5,-45.75,-0.29,0.37,9.39,0.0,0.0,0.001090830782496456,186.0,-1.4375,-2.0,-0.04,-0.02,-0.43,-0.25,0.34,9.790000000000001
1686659472.337281,3.875,-22.5,-46.0625,-0.3,0.34,9.38,-0.001090830782496456,0.002181661564992912,-0.002181661564992912,186.0,-1.4375,-2.0,-0.05,0.0,-0.38,-0.25,0.34,9.790000000000001
1686659472.387387,3.1875,-23.1875,-45.75,-0.28,0.35000000000000003,9.39,0.001090830782496456,0.0,0.001090830782496456,186.0,-1.4375,-2.0,-0.02,0.0,-0.38,-0.25,0.34,9.790000000000001
1686659472.437535,4.6875,-22.5,-46.1875,-0.28,0.35000000000000003,9.36,-0.001090830782496456,0.0,-0.002181661564992912,186.0,-1.4375,-2.0,-0.04,0.0,-0.42,-0.25,0.34,9.790000000000001
1686659472.488081,3.5,-22.875,-46.5625,-0.29,0.36,9.39,0.002181661564992912,0.0,0.001090830782496456,186.0,-1.4375,-2.0,-0.03,0.0,-0.42,-0.25,0.34,9.790000000000001
1686659472.538053,3.5,-21.75,-46.5,-0.31,0.35000000000000003,9.39,-0.001090830782496456,-0.001090830782496456,-0.001090830782496456,186.0,-1.4375,-2.0,-0.03,0.0,-0.38,-0.25,0.34,9.790000000000001
1686659472.589113,3.1875,-22.0625,-45.6875,-0.3,0.32,9.370000000000001,0.0,0.003272492347489368,0.0,186.0,-1.4375,-2.0,-0.02,0.0,-0.4,-0.25,0.34,9.790000000000001
1686659472.639238,3.875,-22.875,-45.25,-0.28,0.32,9.39,0.001090830782496456,0.001090830782496456,0.001090830782496456,186.0,-1.4375,-2.0,-0.02,0.0,-0.42,-0.25,0.34,9.790000000000001
1686659472.689564,3.5,-24.0,-46.0625,-0.29,0.34,9.4,-0.001090830782496456,-0.001090830782496456,0.0,186.0,-1.4375,-2.0,-0.03,0.0,-0.4,-0.25,0.34,9.790000000000001
1686659472.739725,3.875,-22.875,-47.6875,-0.28,0.35000000000000003,9.39,0.0,0.0,0.0,186.0,-1.4375,-2.0,-0.03,0.0,-1.48,-0.25,0.34,9.790000000000001
1686659472.790038,2.875,-22.875,-45.75,-0.31,0.34,9.39,-0.001090830782496456,-0.001090830782496456,0.0,186.0,-1.4375,-2.0,-0.03,0.0,-0.39,-0.25,0.34,9.790000000000001
1686659472.839939,2.5,-22.0625,-46.0625,-0.31,0.34,9.39,0.0,0.0,0.0,186.0,-1.4375,-2.0,-0.01,0.0,-0.4,-0.25,0.34,9.790000000000001
1686659472.891411,4.6875,-23.5625,-46.0625,-0.3,0.33,9.39,0.0,0.0,-0.002181661564992912,186.0,-1.4375,-2.0,-0.03,-0.01,-0.4,-0.25,0.34,9.790000000000001
1686659472.942329,4.6875,-22.0625,-46.5,-0.3,0.34,9.4,0.0,0.0,0.001090830782496456,186.0,-1.4375,-2.0,-0.03,0.01,-0.4,-0.25,0.34,9.790000000000001
1686659472.992962,3.1875,-22.5,-45.25,-0.27,0.34,9.39,0.001090830782496456,0.0,0.001090830782496456,186.0,-1.4375,-2.0,-0.04,0.0,-0.37,-0.25,0.34,9.790000000000001
1686659473.043123,4.25,-22.5,-46.5625,-0.29,0.35000000000000003,9.370000000000001,0.0,0.0,-0.001090830782496456,186.0,-1.4375,-2.0,-0.03,0.02,-0.42,-0.25,0.34,9.790000000000001
1686659473.093336,5.0,-23.5625,-46.0625,-0.29,0.35000000000000003,9.39,-0.001090830782496456,-0.002181661564992912,0.001090830782496456,186.0,-1.4375,-2.0,-0.04,0.01,-0.41000000000000003,-0.25,0.34,9.790000000000001
1686659473.144555,3.5,-22.875,-45.6875,-0.27,0.33,9.4,0.0,-0.001090830782496456,0.0,186.0,-1.4375,-2.0,-0.05,0.0,-0.4,-0.25,0.34,9.790000000000001
1686659473.195376,3.1875,-22.5,-45.6875,-0.3,0.35000000000000003,9.370000000000001,0.0,0.001090830782496456,0.003272492347489368,186.0,-1.4375,-2.0,-0.04,0.0,-0.4,-0.25,0.34,9.790000000000001
1686659473.245502,3.5,-23.1875,-46.875,-0.27,0.36,9.39,-0.001090830782496456,0.001090830782496456,-0.001090830782496456,186.0,-1.4375,-2.0,-0.03,0.0,-0.39,-0.25,0.34,9.790000000000001
1686659473.295647,4.6875,-23.1875,-45.75,-0.3,0.35000000000000003,9.41,0.0,-0.002181661564992912,0.0,186.0,-1.4375,-2.0,-0.03,0.03,-0.41000000000000003,-0.25,0.34,9.790000000000001
1686659473.34598,3.5,-23.1875,-46.1875,-0.3,0.35000000000000003,9.39,0.001090830782496456,0.004363323129985824,-0.001090830782496456,186.0,-1.4375,-2.0,-0.02,0.0,-0.4,-0.25,0.34,9.790000000000001
1686659473.398068,4.6875,-23.1875,-45.6875,-0.28,0.34,9.39,0.001090830782496456,-0.001090830782496456,-0.001090830782496456,186.0,-1.4375,-2.0,-0.04,0.0,-0.42,-0.25,0.34,9.790000000000001
1686659473.447668,3.875,-23.1875,-46.875,-0.3,0.33,9.41,0.0,-0.002181661564992912,0.0,186.0,-1.4375,-2.0,-0.03,0.02,-0.41000000000000003,-0.25,0.34,9.790000000000001
1686659473.497734,4.25,-22.875,-46.0625,-0.3,0.33,9.39,0.001090830782496456,-0.002181661564992912,0.0,186.0,-1.4375,-2.0,-0.05,0.0,-0.39,-0.25,0.34,9.790000000000001
1686659473.547026,2.5,-23.1875,-46.0625,-0.3,0.33,9.39,0.0,0.002181661564992912,0.0,186.0,-1.4375,-2.0,-0.03,0.01,-0.4,-0.25,0.34,9.790000000000001
1686659473.597213,3.1875,-22.875,-46.0625,-0.27,0.33,9.4,0.0,0.002181661564992912,0.002181661564992912,186.0,-1.4375,-2.0,-0.03,0.0,-0.41000000000000003,-0.25,0.34,9.790000000000001
1686659473.647211,2.875,-22.5,-46.0625,-0.29,0.32,9.38,0.0,0.001090830782496456,-0.001090830782496456,186.0,-1.4375,-2.0,-0.03,0.0,-0.4,-0.25,0.34,9.790000000000001
1686659473.698639,3.1875,-22.5,-46.0625,-0.29,0.34,9.39,-0.001090830782496456,-0.001090830782496456,0.0,186.0,-1.4375,-2.0,-0.03,0.0,-0.39,-0.25,0.34,9.790000000000001
1686659473.748688,4.25,-22.5,-43.6875,-0.28,0.35000000000000003,9.39,0.002181661564992912,0.001090830782496456,0.001090830782496456,186.0,-1.4375,-2.0,-0.03,0.0,-0.4,-0.25,0.34,9.790000000000001
1686659473.799067,3.875,-22.875,-46.5625,-0.28,0.35000000000000003,9.41,0.001090830782496456,0.1407171709420428,-0.003272492347489368,186.0,-1.4375,-2.0,-0.04,0.0,-0.38,-0.25,0.34,9.790000000000001
1686659473.849223,3.875,-23.5625,-45.75,-0.28,0.35000000000000003,9.4,0.001090830782496456,0.001090830782496456,0.001090830782496456,186.0,-1.4375,-2.0,-0.03,0.0,-0.4,-0.25,0.34,9.790000000000001
1686659473.899659,2.875,-22.875,-46.0625,-0.29,0.34,9.39,0.0,0.002181661564992912,-0.001090830782496456,186.0,-1.4375,-2.0,-0.03,0.0,-0.39,-0.25,0.34,9.790000000000001
1686659473.950482,3.875,-22.875,-46.5,-0.28,0.34,9.38,0.0,0.0,0.001090830782496456,186.0,-1.4375,-2.0,-0.05,0.01,-0.38,-0.25,0.34,9.790000000000001
1686659474.000749,4.6875,-22.5,-44.5,-0.28,0.33,9.4,0.002181661564992912,0.002181661564992912,-0.001090830782496456,186.0,-1.4375,-2.0,-0.03,0.01,-0.41000000000000003,-0.25,0.34,9.790000000000001
1686659474.050342,2.5,-22.875,-45.25,-0.29,0.35000000000000003,9.38,-0.001090830782496456,-0.002181661564992912,0.0,186.0,-1.4375,-2.0,-0.03,0.01,-0.42,-0.25,0.34,9.790000000000001
1686659474.100224,3.875,-22.5,-46.0625,-0.28,0.36,9.4,0.001090830782496456,0.0,0.001090830782496456,186.0,-1.4375,-2.0,-0.03,0.0,-0.43,-0.25,0.34,9.790000000000001
1686659474.150434,2.0625,-23.5625,-46.0625,-0.27,0.35000000000000003,9.39,0.0,0.0,0.0,186.0,-1.4375,-2.0,-0.05,0.0,-0.39,-0.25,0.34,9.790000000000001
1686659474.201282,3.1875,-23.1875,-45.25,-0.28,0.33,9.39,-0.001090830782496456,0.003272492347489368,0.0,186.0,-1.4375,-2.0,-0.04,0.0,-0.39,-0.25,0.34,9.790000000000001
1686659474.251384,4.25,-22.5,-46.5,-0.3,0.35000000000000003,9.39,0.001090830782496456,0.003272492347489368,0.0,186.0,-1.4375,-2.0,-0.03,0.0,-0.41000000000000003,-0.25,0.34,9.790000000000001
1686659474.301737,3.875,-22.5,-45.6875,-0.28,0.33,9.39,0.002181661564992912,-0.001090830782496456,0.001090830782496456,186.0,-1.4375,-2.0,-0.04,0.0,-0.41000000000000003,-0.25,0.34,9.790000000000001
1686659474.351847,4.6875,-22.875,-45.5625,-0.3,0.37,9.36,0.001090830782496456,-0.002181661564992912,-0.002181661564992912,186.0,-1.4375,-2.0,-0.03,-0.01,-0.41000000000000003,-0.25,0.34,9.790000000000001
1686659474.40221,3.875,-23.1875,-45.6875,-0.3,0.35000000000000003,9.39,0.0,-0.001090830782496456,0.001090830782496456,186.0,-1.4375,-2.0,-0.04,0.0,-0.41000000000000003,-0.25,0.34,9.790000000000001
1686659474.452125,2.5,-22.5,-46.5,-0.29,0.31,9.38,-0.001090830782496456,0.001090830782496456,0.0,186.0,-1.4375,-2.0,-0.03,0.0,-0.39,-0.25,0.34,9.790000000000001
1686659474.503519,4.25,-22.5,-46.0625,-0.29,0.32,9.39,0.001090830782496456,-0.001090830782496456,0.002181661564992912,186.0,-1.4375,-2.0,-0.04,0.0,-0.39,-0.25,0.34,9.790000000000001
1686659474.553475,3.875,-22.875,-46.875,-0.28,0.34,9.38,-0.001090830782496456,0.002181661564992912,-0.001090830782496456,186.0,-1.4375,-2.0,-0.04,0.0,-0.43,-0.25,0.34,9.790000000000001
1686659474.603699,3.5,-23.1875,-45.6875,-0.27,0.35000000000000003,9.39,-0.001090830782496456,-0.001090830782496456,0.002181661564992912,186.0,-1.4375,-2.0,-0.03,0.0,-0.38,-0.25,0.34,9.790000000000001
1686659474.653704,3.875,-22.5,-46.375,-0.29,0.34,9.39,0.0,0.0,-0.002181661564992912,186.0,-1.4375,-2.0,-0.03,0.0,-0.42,-0.25,0.34,9.790000000000001
1686659474.70401,2.875,-23.1875,-46.0,-0.26,0.35000000000000003,9.370000000000001,0.002181661564992912,-0.002181661564992912,0.002181661564992912,186.0,-1.4375,-2.0,-0.05,0.0,-0.41000000000000003,-0.25,0.34,9.790000000000001
1686659474.755441,3.1875,-22.875,-44.875,-0.31,0.34,9.370000000000001,0.001090830782496456,-0.001090830782496456,0.003272492347489368,186.0,-1.4375,-2.0,-0.03,0.01,-0.42,-0.25,0.34,9.790000000000001
1686659474.805574,3.875,-23.1875,-46.0625,-0.29,0.35000000000000003,9.39,0.0,-0.003272492347489368,-0.002181661564992912,186.0,-1.4375,-2.0,-0.05,-0.01,-0.42,-0.25,0.34,9.790000000000001
1686659474.855556,2.5,-23.5625,-46.5,-0.3,0.35000000000000003,9.39,0.001090830782496456,0.0,-0.001090830782496456,186.0,-1.4375,-2.0,-0.02,0.0,-0.43,-0.25,0.34,9.790000000000001
1686659474.905895,2.5,-22.5,-46.5625,-0.3,0.34,9.39,0.0,0.001090830782496456,-0.001090830782496456,186.0,-1.4375,-2.0,-0.04,0.0,-0.39,-0.25,0.34,9.790000000000001
1686659474.956097,4.6875,-22.875,-45.75,-0.29,0.35000000000000003,9.4,0.0,0.001090830782496456,0.0,186.0,-1.4375,-2.0,-0.04,0.02,-0.42,-0.25,0.34,9.790000000000001
1686659475.007173,3.875,-22.5,-45.25,-0.29,0.35000000000000003,9.39,0.0,-0.003272492347489368,0.0,186.0,-1.4375,-2.0,-0.04,0.0,-0.42,-0.25,0.34,9.790000000000001
1686659475.056647,2.0625,-22.875,-46.5,-0.29,0.34,9.39,-0.001090830782496456,-0.001090830782496456,0.0,186.0,-1.4375,-2.0,-0.03,0.0,-0.4,-0.25,0.34,9.790000000000001
1686659475.106576,2.875,-22.5,-46.5,-0.28,0.36,9.4,-0.001090830782496456,-0.002181661564992912,0.0,186.0,-1.4375,-2.0,-0.04,0.0,-0.41000000000000003,-0.25,0.34,9.790000000000001
1686659475.156672,2.5,-22.875,-46.5,-0.29,0.36,9.370000000000001,0.001090830782496456,-0.002181661564992912,0.001090830782496456,186.0,-1.4375,-2.0,-0.03,0.01,-0.44,-0.25,0.34,9.790000000000001
1686659475.206952,3.1875,-23.1875,-46.5,-0.3,0.34,,-0.002181661564992912,0.0,-0.001090830782496456,186.0,-1.4375,-2.0,-0.06,0.01,-0.38,-0.25,0.34,9.790000000000001
1686659475.25411,5.375,-23.1875,-45.6875,-0.28,0.35000000000000003,9.39,-0.001090830782496456,0.0,0.0,186.0,-1.4375,-2.0,-0.05,0.0,-0.4,-0.25,0.34,9.790000000000001
1686659475.305073,4.25,-22.5,-46.5,-0.27,0.36,9.4,0.002181661564992912,0.0,-0.002181661564992912,186.0,-1.4375,-2.0,-0.05,0.01,-0.39,-0.25,0.34,9.790000000000001
1686659475.354409,3.5,-22.875,-44.5625,-0.28,0.34,9.39,0.0,-0.002181661564992912,0.0,186.0,-1.4375,-2.0,-0.03,-0.01,-0.39,-0.25,0.34,9.790000000000001
1686659475.404569,3.5,-22.875,-45.6875,-0.29,0.36,9.39,0.0,0.0,0.002181661564992912,186.0,-1.4375,-2.0,-0.03,0.01,-0.38,-0.25,0.34,9.790000000000001
1686659475.454552,3.875,-22.875,-46.5,-0.3,0.35000000000000003,9.41,0.0,0.001090830782496456,-0.001090830782496456,186.0,-1.4375,-2.0,-0.05,0.01,-0.4,-0.25,0.34,9.790000000000001
1686659475.504813,3.1875,-23.5625,-45.6875,-0.29,0.33,9.39,0.0,0.0,0.0,186.0,-1.4375,-2.0,-0.04,0.0,-0.38,-0.25,0.34,9.790000000000001
1686659475.555788,3.875,-22.0625,-46.875,-0.29,0.34,9.39,-0.001090830782496456,0.001090830782496456,-0.001090830782496456,186.0,-1.4375,-2.0,-0.04,0.0,-0.41000000000000003,-0.25,0.34,9.790000000000001
1686659475.605924,2.0625,-23.1875,-45.75,-0.29,0.34,9.4,0.001090830782496456,0.002181661564992912,0.0,186.0,-1.4375,-2.0,-0.04,0.01,-0.4,-0.25,0.34,9.790000000000001
1686659475.655298,3.5,-23.1875,-43.75,-0.3,0.32,9.38,0.0,-0.001090830782496456,0.0,186.0,-1.4375,-2.0,-0.02,0.0,-0.4,-0.25,0.34,9.790000000000001
1686659475.705396,3.1875,-22.875,-46.0625,-0.29,0.33,9.39,0.001090830782496456,0.001090830782496456,0.0,186.0,-1.4375,-2.0,-0.04,0.0,-0.4,-0.25,0.34,9.790000000000001
1686659475.755291,3.875,-22.875,-44.875,-0.29,0.35000000000000003,9.39,0.0,-0.001090830782496456,0.002181661564992912,186.0,-1.4375,-2.0,-0.05,0.01,-0.4,-0.25,0.34,9.790000000000001
1686659475.806573,3.875,-23.1875,-46.875,-0.32,0.33,9.4,0.002181661564992912,0.0,0.0,186.0,-1.4375,-2.0,-0.03,-0.01,-0.4,-0.25,0.34,9.790000000000001
1686659475.856064,3.1875,-22.875,-45.25,-0.28,0.35000000000000003,9.39,0.0,-0.002181661564992912,0.0,186.0,-1.4375,-2.0,-0.05,0.01,-0.39,-0.25,0.34,9.790000000000001
1686659475.906158,3.875,-23.1875,-46.5,-0.29,0.35000000000000003,9.39,-0.001090830782496456,0.002181661564992912,0.001090830782496456,186.0,-1.4375,-2.0,-0.05,0.0,-0.41000000000000003,-0.25,0.34,9.790000000000001
1686659475.956211,3.5,-22.875,-45.75,-0.28,0.34,9.370000000000001,0.0,-0.002181661564992912,-0.001090830782496456,186.0,-1.4375,-2.0,-0.04,0.0,-0.39,-0.25,0.34,9.790000000000001
1686659476.006267,2.5,-22.5,-45.6875,-0.29,0.35000000000000003,9.370000000000001,0.001090830782496456,0.002181661564992912,0.0,186.0,-1.4375,-2.0,-0.04,0.02,-0.4,-0.25,0.34,9.790000000000001
1686659476.056682,3.875,-22.5,-46.0625,-0.29,0.33,9.38,0.0,0.001090830782496456,0.0,186.0,-1.4375,-2.0,-0.03,0.01,-0.39,-0.25,0.34,9.790000000000001
1686659476.10776,4.25,-21.75,-44.875,-0.29,0.34,9.39,0.001090830782496456,0.001090830782496456,-0.001090830782496456,186.0,-1.4375,-2.0,-0.03,0.0,-0.4,-0.25,0.34,9.790000000000001
1686659476.157821,3.5,-22.875,-45.25,-0.28,0.35000000000000003,9.38,-0.001090830782496456,-0.002181661564992912,-0.001090830782496456,186.0,-1.4375,-2.0,-0.03,0.0,-0.41000000000000003,-0.25,0.34,9.790000000000001
1686659476.208154,3.1875,-22.0625,-45.6875,-0.3,0.35000000000000003,9.39,0.001090830782496456,0.0,0.0,186.0,-1.4375,-2.0,-0.03,0.0,-0.43,-0.25,0.34,9.790000000000001
1686659476.258117,3.5,-23.5625,-45.25,-0.28,0.36,9.38,-0.001090830782496456,0.003272492347489368,-0.001090830782496456,186.0,-1.4375,-2.0,-0.04,0.0,-0.39,-0.25,0.34,9.790000000000001
1686659476.308283,2.5,-22.0625,-45.25,-0.31,1.6400000000000001,9.42,-0.001090830782496456,0.0,0.0,186.0,-1.4375,-2.0,-0.03,0.0,-0.41000000000000003,-0.25,0.34,9.790000000000001
1686659476.359047,4.25,-22.0625,-45.5625,-0.29,0.35000000000000003,9.4,0.0,0.001090830782496456,0.001090830782496456,186.0,-1.4375,-2.0,-0.04,0.0,-0.42,-0.25,0.34,9.790000000000001
1686659476.408601,2.875,-23.1875,-46.5,-0.29,0.33,9.38,0.001090830782496456,-0.002181661564992912,-0.001090830782496456,186.0,-1.4375,-2.0,-0.05,0.0,-0.42,-0.25,0.34,9.790000000000001
1686659476.458668,3.875,-22.5,-45.6875,-0.29,0.33,9.4,0.001090830782496456,0.002181661564992912,0.0,186.0,-1.4375,-2.0,-0.03,0.0,-0.39,-0.25,0.34,9.790000000000001
1686659476.508923,3.5,-22.875,-45.5625,-0.28,0.35000000000000003,9.38,-0.001090830782496456,0.0,0.001090830782496456,186.0,-1.4375,-2.0,-0.03,0.01,-0.42,-0.25,0.34,9.790000000000001
1686659476.558327,3.5,-22.0625,-46.5,-0.3,0.33,9.4,0.0,0.001090830782496456,0.0,186.0,-1.4375,-2.0,-0.04,0.0,-0.38,-0.25,0.34,9.790000000000001
1686659476.609151,4.6875,-23.5625,-46.5,-0.29,0.35000000000000003,9.4,0.001090830782496456,-0.003272492347489368,0.001090830782496456,186.0,-1.4375,-2.0,-0.03,0.0,-0.4,-0.25,0.34,9.790000000000001
1686659476.658707,2.875,-22.0625,-46.0625,-0.29,0.34,9.4,-0.001090830782496456,0.002181661564992912,0.0,186.0,-1.4375,-2.0,-0.02,0.01,-0.38,-0.25,0.34,9.790000000000001
1686659476.708667,3.5,-22.875,-45.6875,-0.29,0.34,9.4,0.0,0.002181661564992912,0.0,186.0,-1.4375,-2.0,-0.03,0.0,-0.4,-0.25,0.34,9.790000000000001
1686659476.758755,3.875,-22.5,-45.6875,-0.28,0.33,8.11,0.001090830782496456,0.001090830782496456,0.001090830782496456,186.0,-1.4375,-2.0,-0.03,0.0,-0.39,-0.25,0.34,9.790000000000001
1686659476.808925,3.5,-23.1875,-46.0625,-0.28,0.37,9.39,0.002181661564992912,0.0,0.0,186.0,-1.4375,-2.0,-0.04,0.0,-0.41000000000000003,-0.25,0.34,9.790000000000001
1686659476.859089,4.6875,-22.5,-45.6875,-0.26,0.34,9.4,0.001090830782496456,-0.002181661564992912,0.0,186.0,-1.4375,-2.0,-0.03,0.02,-0.37,-0.25,0.34,9.790000000000001
1686659476.910295,2.875,-22.875,-46.75,-0.31,0.35000000000000003,9.370000000000001,0.0,0.0,-0.001090830782496456,186.0,-1.4375,-2.0,-0.03,0.0,-0.41000000000000003,-0.25,0.34,9.790000000000001
1686659476.960317,3.1875,-22.5,-45.1875,-0.28,0.33,9.38,-0.001090830782496456,0.0,-0.001090830782496456,186.0,-1.4375,-2.0,-0.04,0.01,-0.4,-0.25,0.34,9.790000000000001
1686659477.010538,4.25,-23.1875,-44.875,-0.27,0.34,9.39,0.0,0.003272492347489368,0.0,186.0,-1.4375,-2.0,-0.03,0.01,-0.42,-0.25,0.34,9.790000000000001
1686659477.060645,3.1875,-21.75,-46.5,-0.28,0.33,9.38,0.001090830782496456,0.002181661564992912,0.002181661564992912,186.0,-1.4375,-2.0,-0.03,0.0,-0.42,-0.25,0.34,9.790000000000001
1686659477.110733,3.5,-22.5,-46.0,-0.28,0.35000000000000003,9.36,0.0,-0.001090830782496456,0.0,186.0,-1.4375,-2.0,-0.03,0.0,-0.4,-0.25,0.34,9.790000000000001
1686659477.16167,4.25,-23.1875,-46.5,-0.3,0.34,9.370000000000001,0.002181661564992912,0.0,0.0,186.0,-1.4375,-2.0,-0.05,0.0,-0.41000000000000003,-0.25,0.34,9.790000000000001
1686659477.212062,3.1875,-23.5625,-46.5,-0.28,0.35000000000000003,9.4,0.002181661564992912,0.001090830782496456,0.001090830782496456,186.0,-1.4375,-2.0,-0.04,0.0,-0.39,-0.25,0.34,9.790000000000001
1686659477.262203,4.25,-22.875,-45.25,-0.29,0.35000000000000003,9.4,0.001090830782496456,-0.001090830782496456,0.001090830782496456,186.0,-1.4375,-2.0,-0.04,0.0,-0.41000000000000003,-0.25,0.34,9.790000000000001
1686659477.312475,3.1875,-22.5,-45.1875,-0.3,0.34,9.39,-0.001090830782496456,-0.001090830782496456,-0.002181661564992912,186.0,-1.4375,-2.0,-0.02,0.0,-0.38,-0.25,0.34,9.790000000000001
1686659477.362727,2.875,-22.875,-46.875,-0.29,0.34,9.39,-0.001090830782496456,0.0,-0.001090830782496456,186.0,-1.4375,-2.0,-0.03,0.0,-0.4,-0.25,0.34,9.790000000000001
1686659477.414507,3.5,-22.5,-45.6875,-0.28,0.35000000000000003,9.4,0.0,0.0,0.001090830782496456,186.0,-1.4375,-2.0,-0.05,0.0,-0.41000000000000003,-0.25,0.34,9.790000000000001
1686659477.464238,2.875,-22.0625,-46.0625,-0.27,0.36,9.4,0.0,-0.001090830782496456,-0.001090830782496456,186.0,-1.4375,-2.0,-0.03,0.01,-0.41000000000000003,-0.25,0.34,9.790000000000001
1686659477.514831,3.875,-23.1875,-45.25,-0.31,0.33,9.38,0.001090830782496456,-0.002181661564992912,0.001090830782496456,186.0,-1.4375,-2.0,-0.03,0.0,-0.41000000000000003,-0.25,0.34,9.790000000000001
1686659477.564756,3.1875,-23.1875,-46.875,-0.28,0.35000000000000003,9.39,0.001090830782496456,-0.001090830782496456,0.0,186.0,-1.4375,-2.0,-0.04,0.02,-0.41000000000000003,-0.25,0.34,9.790000000000001
1686659477.614673,3.5,-23.5625,-46.875,-0.27,0.36,9.39,0.001090830782496456,-0.001090830782496456,-0.001090830782496456,186.0,-1.4375,-2.0,-0.03,0.01,-0.43,-0.25,0.34,9.790000000000001
1686659477.664996,3.5,-22.875,-45.25,-0.29,0.35000000000000003,9.39,-0.002181661564992912,-0.001090830782496456,-0.001090830782496456,186.0,-1.4375,-2.0,-0.04,0.0,-0.39,-0.25,0.34,9.790000000000001
1686659477.71652,3.875,-22.875,-46.5625,-0.28,0.33,9.39,0.001090830782496456,0.003272492347489368,-0.001090830782496456,186.0,-1.4375,-2.0,-0.04,0.0,-0.4,-0.25,0.34,9.790000000000001
1686659477.766492,3.875,-22.875,-45.25,-0.28,0.35000000000000003,9.39,-0.002181661564992912,0.001090830782496456,0.0,186.0,-1.4375,-2.0,-0.03,0.0,-0.42,-0.25,0.34,9.790000000000001
1686659477.816644,4.25,-23.1875,-46.0625,-0.3,0.36,9.370000000000001,0.0,0.001090830782496456,0.001090830782496456,186.0,-1.4375,-2.0,-0.04,0.01,-0.4,-0.25,0.34,9.790000000000001
1686659477.866451,2.875,-21.75,-46.5,-0.29,0.34,9.38,0.001090830782496456,0.0,0.0,186.0,-1.4375,-2.0,-0.02,0.0,-0.43,-0.25,0.34,9.790000000000001
1686659477.916583,3.875,-22.875,-46.0625,-0.28,0.35000000000000003,9.39,0.001090830782496456,0.001090830782496456,0.0,186.0,-1.4375,-2.0,-0.03,0.02,-0.39,-0.25,0.34,9.790000000000001
1686659477.966656,3.5,-22.5,-46.0625,-0.28,0.34,9.39,-0.001090830782496456,-0.001090830782496456,0.0,186.0,-1.4375,-2.0,-0.03,0.01,-0.4,-0.25,0.34,9.790000000000001
1686659478.017183,3.875,-22.875,-46.5,-0.27,0.34,9.39,0.0,-0.002181661564992912,-0.001090830782496456,186.0,-1.4375,-2.0,-0.04,0.0,-0.4,-0.25,0.34,9.790000000000001
1686659478.067017,3.5,-22.5,-45.25,-0.29,0.33,9.370000000000001,0.0,0.0,-0.001090830782496456,186.0,-1.4375,-2.0,-0.03,0.0,-0.43,-0.25,0.34,9.790000000000001
1686659478.116369,3.5,-23.1875,-45.6875,-0.28,0.33,9.39,0.001090830782496456,0.003272492347489368,0.0,186.0,-1.4375,-2.0,-0.01,0.0,-0.42,-0.25,0.34,9.790000000000001
1686659478.16626,4.25,-22.5,-44.5625,-0.29,0.35000000000000003,9.38,0.0,-0.001090830782496456,0.0,186.0,-1.4375,-2.0,-0.03,0.0,-0.4,-0.25,0.34,9.790000000000001
1686659478.218084,2.875,-22.5,-46.5,-0.31,0.33,9.39,0.0,-0.001090830782496456,-0.003272492347489368,186.0,-1.4375,-2.0,-0.02,0.0,-0.42,-0.25,0.34,9.790000000000001
1686659478.268025,3.875,-23.1875,-46.0625,-0.28,0.33,9.39,0.001090830782496456,-0.003272492347489368,0.0,186.0,-1.4375,-2.0,-0.02,0.0,-0.4,-0.25,0.34,9.790000000000001
1686659478.317915,3.5,-22.5,-46.0,-0.28,0.33,9.39,0.001090830782496456,0.001090830782496456,0.001090830782496456,186.0,-1.4375,-2.0,-0.03,0.0,-0.39,-0.25,0.34,9.790000000000001
1686659478.367396,4.6875,-22.5,-45.5625,-0.3,0.34,9.39,0.0,0.001090830782496456,-0.001090830782496456,186.0,-1.4375,-2.0,-0.04,0.02,-0.44,-0.25,0.34,9.790000000000001
1686659478.417442,2.875,-22.5,-45.6875,-0.31,0.33,9.39,-0.001090830782496456,0.002181661564992912,-0.002181661564992912,186.0,-1.4375,-2.0,-0.03,0.02,-0.43,-0.25,0.34,9.790000000000001
1686659478.467669,2.875,-22.875,-46.0625,-0.29,0.34,9.39,0.0,-0.001090830782496456,0.001090830782496456,186.0,-1.4375,-2.0,-0.04,0.01,-0.4,-0.25,0.34,9.790000000000001
1686659478.518529,3.5,-22.875,-45.25,-0.29,0.34,9.39,-0.001090830782496456,0.001090830782496456,-0.001090830782496456,186.0,-1.4375,-2.0,-0.04,0.02,-0.42,-0.25,1.62,9.790000000000001
1686659478.567587,3.1875,-23.1875,-44.75,-0.31,0.34,9.39,0.0,-0.001090830782496456,0.0,186.0,-1.4375,-2.0,-0.04,-0.01,-0.42,-0.25,0.34,9.790000000000001
1686659478.618227,2.875,-22.0625,-45.6875,-0.28,0.33,9.38,0.001090830782496456,0.001090830782496456,0.0,186.0,-1.4375,-2.0,-0.03,0.02,-0.4,-0.25,0.34,9.790000000000001
1686659478.668317,3.5,2025.125,-45.75,-0.28,0.32,9.4,0.0,-0.001090830782496456,0.0,186.0,-1.4375,-2.0,-0.03,0.01,-0.41000000000000003,-0.25,1.62,9.790000000000001
1686659478.718027,3.1875,-22.5,-45.25,-0.31,0.35000000000000003,9.41,0.0,0.0,0.001090830782496456,186.0,-1.4375,-2.0,-0.06,0.0,-0.42,-0.25,0.34,9.790000000000001
1686659478.768658,3.1875,-22.0625,-45.6875,-0.3,0.35000000000000003,9.4,0.001090830782496456,0.001090830782496456,0.001090830782496456,186.0,-1.4375,-2.0,-0.03,0.0,-0.4,-0.25,0.34,9.790000000000001
1686659478.818818,3.875,-22.0625,-45.6875,-0.27,0.33,9.4,0.0,0.001090830782496456,0.001090830782496456,186.0,-1.4375,-2.0,-0.03,0.0,-0.43,-0.25,0.34,9.790000000000001
1686659478.868546,3.875,-22.5,-44.75,-0.31,0.34,9.38,0.0,-0.003272492347489368,0.0,186.0,-1.4375,-2.0,-0.04,0.01,-0.42,-0.25,0.34,9.790000000000001
1686659478.918912,3.1875,-22.875,-46.0625,-0.27,0.35000000000000003,9.39,0.0,-0.001090830782496456,-0.001090830782496456,186.0,-1.4375,-2.0,-0.04,0.02,-0.42,-0.25,0.34,9.790000000000001
1686659478.969306,4.25,-22.875,-45.5625,-0.27,0.34,9.36,-0.002181661564992912,-0.002181661564992912,0.0,186.0,-1.4375,-2.0,-0.04,0.0,-0.41000000000000003,-0.25,0.34,9.790000000000001
1686659479.02067,3.5,-23.1875,-45.5625,-0.27,0.34,9.39,0.0,0.001090830782496456,-0.002181661564992912,186.0,-1.4375,-2.0,-0.04,0.0,-0.42,-0.25,0.34,9.790000000000001
1686659479.070424,3.875,-22.875,-45.875,-0.31,0.32,9.38,0.0,0.001090830782496456,0.0,186.0,-1.4375,-2.0,-0.03,0.01,-0.4,-0.25,0.34,9.790000000000001
1686659479.119747,3.875,-22.875,-44.75,-0.3,0.34,9.39,-0.001090830782496456,0.002181661564992912,-0.001090830782496456,186.0,-1.4375,-2.0,-0.03,0.0,-0.44,-0.25,0.34,9.790000000000001
1686659479.169601,3.1875,-22.875,-46.375,-0.3,0.33,9.4,0.001090830782496456,0.001090830782496456,0.0,186.0,-1.4375,-2.0,-0.05,0.0,-0.41000000000000003,-0.25,0.34,9.790000000000001
1686659479.219913,2.5,-23.1875,-7.0,-0.3,0.35000000000000003,9.370000000000001,-0.001090830782496456,0.003272492347489368,0.0,186.0,-1.4375,-2.0,-0.03,0.0,-0.42,-0.25,0.34,9.790000000000001
1686659479.27004,3.1875,-22.875,-44.375,-0.3,0.35000000000000003,9.39,0.0,-0.001090830782496456,0.001090830782496456,186.0,-1.4375,-2.0,-0.05,0.01,-0.42,-0.25,0.34,9.790000000000001
1686659479.321165,3.5,-23.5625,-44.75,-0.3,0.36,9.39,0.002181661564992912,0.001090830782496456,0.002181661564992912,186.0,-1.4375,-2.0,-0.03,0.01,-0.41000000000000003,-0.25,0.34,9.790000000000001
1686659479.370274,3.1875,-22.875,-44.75,-0.29,0.33,9.38,0.001090830782496456,0.0,0.0,186.0,-1.4375,-2.0,-0.03,0.0,-0.43,-0.25,0.34,9.790000000000001
1686659479.420548,2.875,-23.5625,-45.0625,-0.29,0.33,9.41,0.0,0.0,0.0,186.0,-1.4375,-2.0,-0.03,0.0,-0.41000000000000003,-0.25,0.34,9.790000000000001
1686659479.47052,4.25,-23.1875,-45.0625,-0.29,0.34,9.39,0.0,-0.001090830782496456,0.0,186.0,-1.4375,-2.0,-0.03,0.0,-0.44,-0.25,0.34,9.790000000000001
1686659479.521435,2.875,-22.875,-44.75,-0.3,0.32,9.38,0.001090830782496456,-0.002181661564992912,0.0,186.0,-1.4375,-2.0,-0.03,0.0,-0.42,-0.25,0.34,9.790000000000001
1686659479.57203,3.875,-23.1875,-45.0625,-0.29,0.34,9.4,-0.001090830782496456,0.0,0.0,186.0,-1.4375,-2.0,-0.04,0.0,-0.44,-0.25,0.34,9.790000000000001
1686659479.621198,3.875,-22.5,-46.75,-0.29,0.33,9.41,-0.001090830782496456,0.0,0.0,186.0,-1.4375,-2.0,-0.03,0.01,-0.41000000000000003,-0.25,0.34,9.790000000000001
1686659479.671603,3.5,-22.5,-46.25,-0.3,0.33,9.39,-0.002181661564992912,0.0,0.001090830782496456,186.0,-1.4375,-2.0,-0.02,-0.01,-0.42,-0.25,0.34,9.790000000000001
1686659479.721517,3.1875,-22.5,-46.375,-0.28,0.34,9.38,-0.001090830782496456,0.0,-0.001090830782496456,186.0,-1.4375,-2.0,-0.03,0.0,-0.41000000000000003,-0.25,0.34,9.790000000000001
1686659479.772031,3.5,-22.5,-47.0625,-0.28,0.33,9.41,0.0,-0.001090830782496456,-0.001090830782496456,186.0,-1.4375,-2.0,-0.05,0.0,-0.41000000000000003,-0.25,0.34,9.790000000000001
1686659479.823489,3.875,-23.5625,-45.5625,-0.28,0.33,9.41,-0.001090830782496456,0.003272492347489368,-0.001090830782496456,186.0,-1.4375,-2.0,-0.03,0.01,-0.42,-0.25,0.34,9.790000000000001
1686659479.873087,2.5,-23.5625,-45.0625,-0.28,0.35000000000000003,9.35,-0.001090830782496456,0.0,0.0,186.0,-1.4375,-2.0,-0.04,0.02,-0.43,-0.25,0.34,9.790000000000001
1686659479.923237,3.5,-21.375,-45.0625,-0.3,0.35000000000000003,9.370000000000001,0.0,-0.001090830782496456,0.0,186.0,-1.4375,-2.0,-0.01,0.01,-0.41000000000000003,-0.25,0.34,9.790000000000001
1686659479.972579,2.5,-22.875,-46.375,-0.3,0.33,9.39,-0.001090830782496456,0.002181661564992912,0.002181661564992912,186.0,-1.4375,-2.0,-0.05,0.0,-0.39,-0.25,0.34,9.790000000000001
1686659480.022748,3.875,-22.875,-45.875,-0.27,0.33,9.39,0.0,0.002181661564992912,0.0,186.0,-1.4375,-2.0,-0.03,0.0,-0.4,-0.25,0.34,9.790000000000001
1686659480.072474,4.25,-23.5625,-45.875,-0.29,0.36,9.4,0.0,-0.001090830782496456,0.0,186.0,-1.4375,-2.0,-0.03,0.0,-0.41000000000000003,-0.25,0.34,9.790000000000001
1686659480.122885,3.5,-23.1875,-46.0,-0.28,0.34,9.4,0.0,0.002181661564992912,0.0,186.0,-1.4375,-2.0,-0.03,-0.02,-0.42,-0.25,0.34,9.790000000000001
1686659480.172817,2.875,-23.1875,-46.0,-0.29,0.35000000000000003,9.4,0.001090830782496456,0.0,0.0,186.0,-1.4375,-2.0,-0.03,0.0,-0.42,-0.25,0.34,9.790000000000001
1686659480.223444,3.5,-22.875,-44.75,-0.3,0.36,9.41,0.0,-0.001090830782496456,0.0,186.0,-1.4375,-2.0,-0.05,0.0,-0.42,-0.25,0.34,9.790000000000001
1686659480.273324,3.5,-23.1875,-44.375,-0.28,1.6300000000000001,9.370000000000001,0.001090830782496456,0.001090830782496456,-0.002181661564992912,186.0,-1.4375,-2.0,-0.02,0.0,-0.42,-0.25,0.34,9.790000000000001
1686659480.323725,3.5,-22.5,-45.5625,-0.3,0.36,9.36,0.001090830782496456,0.001090830782496456,0.001090830782496456,186.0,-1.4375,-2.0,-0.03,-0.02,-0.43,-0.25,0.34,9.790000000000001
1686659480.374515,3.1875,-22.5,-45.5625,-0.28,0.36,9.39,0.0,0.0,-0.001090830782496456,186.0,-1.4375,-2.0,-0.03,0.0,-0.43,-0.25,0.34,9.790000000000001
1686659480.424085,3.5,-23.5625,-45.875,-0.29,0.33,9.38,0.0,0.0,0.001090830782496456,186.0,-1.4375,-2.0,-0.03,0.0,-0.42,-0.25,0.34,9.790000000000001
1686659480.474144,3.875,-23.5625,-47.0625,-0.29,0.34,9.4,0.001090830782496456,0.0,-0.001090830782496456,186.0,-1.4375,-2.0,-0.05,0.0,-0.42,-0.25,0.34,9.790000000000001
1686659480.524169,3.5,-22.5,-45.1875,-0.28,0.36,8.11,-0.002181661564992912,0.001090830782496456,0.0,186.0,-1.4375,-2.0,-0.05,0.0,-0.43,-0.25,0.34,9.790000000000001
1686659480.574302,2.875,-23.1875,-46.75,-0.3,0.34,9.39,0.001090830782496456,-0.002181661564992912,-0.001090830782496456,186.0,-1.4375,-2.0,-0.03,0.0,-0.41000000000000003,-0.25,0.34,9.790000000000001
1686659480.625988,2.875,-23.1875,-37.0625,-0.29,0.35000000000000003,9.39,-0.001090830782496456,-0.001090830782496456,-0.001090830782496456,186.0,-1.4375,-2.0,-0.05,-0.01,-0.38,-0.25,0.34,9.790000000000001
1686659480.675652,3.1875,-24.0,-45.0625,-0.31,0.36,9.4,-0.001090830782496456,0.001090830782496456,-0.001090830782496456,186.0,-1.4375,-2.0,-0.05,0.0,-0.43,-0.25,0.34,9.790000000000001
1686659480.725786,2.875,-22.0625,-45.0625,-0.28,0.34,9.370000000000001,0.001090830782496456,0.001090830782496456,0.001090830782496456,186.0,-1.4375,-2.0,-0.03,0.01,-0.43,-0.25,0.34,9.790000000000001
1686659480.774725,3.875,-23.5625,-44.6875,-0.28,0.36,9.42,-0.003272492347489368,0.003272492347489368,-0.001090830782496456,186.0,-1.4375,-2.0,-0.04,0.0,-0.41000000000000003,-0.25,0.34,9.790000000000001
1686659480.82489,4.25,-23.1875,-45.5625,-0.29,0.35000000000000003,9.39,0.0,0.0,0.0,186.0,-1.4375,-2.0,-0.03,0.0,-0.39,-0.25,0.34,9.790000000000001
1686659480.874121,4.6875,-22.875,-45.5,-0.3,0.32,9.39,0.003272492347489368,0.001090830782496456,-0.001090830782496456,186.0,-1.4375,-2.0,-0.03,0.02,-0.39,-0.25,0.34,9.790000000000001
1686659480.926334,3.5,-22.875,-46.375,-0.29,0.33,9.39,0.001090830782496456,0.002181661564992912,-0.001090830782496456,186.0,-1.4375,-2.0,-0.01,0.01,-0.42,-0.25,0.34,9.790000000000001
1686659480.975786,3.5,-22.1875,-45.875,-0.27,0.33,9.39,0.002181661564992912,0.0,0.0,186.0,-1.4375,-2.0,-0.04,0.02,-0.4,-0.25,0.34,9.790000000000001
1686659481.026058,3.875,-22.875,-45.1875,-0.28,0.34,9.4,0.0,-0.003272492347489368,-0.001090830782496456,186.0,-1.4375,-2.0,-0.04,0.0,-0.41000000000000003,-0.25,1.62,9.790000000000001
1686659481.075757,3.1875,-22.5,-45.875,-0.3,0.34,9.370000000000001,0.001090830782496456,-0.003272492347489368,0.001090830782496456,186.0,-1.4375,-2.0,-0.03,0.0,-0.42,-0.25,0.34,9.790000000000001
1686659481.125976,4.6875,-22.5,-45.5625,-0.28,0.34,9.370000000000001,-0.001090830782496456,0.0,-0.001090830782496456,186.0,-1.4375,-2.0,-0.04,0.0,-0.41000000000000003,-0.25,0.34,9.790000000000001
1686659481.177098,2.875,-22.875,-45.875,-0.3,0.35000000000000003,9.41,0.0,0.002181661564992912,-0.002181661564992912,186.0,-1.4375,-2.0,-0.03,0.0,-0.42,-0.25,0.34,9.790000000000001
1686659481.227568,2.875,-22.5,-45.5625,-0.29,0.36,9.39,-0.002181661564992912,0.001090830782496456,0.0,186.0,-1.4375,-2.0,-0.04,0.01,-0.4,-0.25,0.34,9.790000000000001
1686659481.276555,3.5,-23.1875,-46.0,-0.3,0.37,9.39,-0.002181661564992912,-0.001090830782496456,0.001090830782496456,186.0,-1.4375,-2.0,-0.07,-0.01,-0.42,-0.25,0.34,9.790000000000001
1686659481.326924,3.1875,-22.5,-45.875,-0.3,0.35000000000000003,9.4,-0.002181661564992912,-0.001090830782496456,-0.002181661564992912,186.0,-1.4375,-2.0,-0.04,-0.01,-0.41000000000000003,-0.25,0.34,9.790000000000001
1686659481.377005,3.5,-22.875,-45.875,-0.29,0.34,9.38,0.0,0.001090830782496456,0.001090830782496456,186.0,-1.4375,-2.0,-0.04,0.0,-0.42,-0.25,0.34,9.790000000000001
1686659481.42833,3.875,-22.875,-45.5625,-0.3,0.35000000000000003,9.4,-0.002181661564992912,0.0,0.001090830782496456,186.0,-1.4375,-2.0,-0.04,0.02,-0.4,-0.25,0.34,9.790000000000001
1686659481.478241,3.5,-23.1875,-46.375,-0.28,0.36,9.41,-0.002181661564992912,0.0,0.0,186.0,-1.4375,-2.0,-0.03,0.0,-0.44,-0.25,0.34,9.790000000000001
1686659481.528363,3.5,-22.5,-44.75,-0.28,0.34,9.39,-0.001090830782496456,0.001090830782496456,0.003272492347489368,186.0,-1.4375,-2.0,-0.04,0.01,-0.41000000000000003,-0.25,0.34,9.790000000000001
1686659481.577538,3.875,-22.0625,-45.875,-0.29,0.35000000000000003,9.39,0.001090830782496456,0.0,0.0,186.0,-1.4375,-2.0,-0.03,0.0,-0.4,-0.25,0.34,9.790000000000001
1686659481.627479,4.25,-22.875,-47.0625,-0.29,0.35000000000000003,9.39,-0.001090830782496456,-0.001090830782496456,-0.001090830782496456,186.0,-1.4375,-2.0,-0.03,0.0,-0.41000000000000003,-0.25,0.34,9.790000000000001
1686659481.676703,4.25,-22.875,-45.5625,-0.28,0.35000000000000003,9.4,0.0,0.0,-0.001090830782496456,186.0,-1.4375,-2.0,-0.05,0.0,-0.4,-0.25,0.34,9.790000000000001
1686659481.728064,4.25,-23.1875,-46.375,-0.29,0.35000000000000003,9.39,0.002181661564992912,-0.002181661564992912,-0.001090830782496456,186.0,-1.4375,-2.0,-0.04,-0.01,-0.43,-0.25,0.34,9.790000000000001
1686659481.778197,3.875,-22.875,-45.0625,-0.3,0.33,9.41,-0.001090830782496456,0.002181661564992912,-0.001090830782496456,186.0,-1.4375,-2.0,-0.03,0.0,-0.4,-0.25,0.34,9.790000000000001
