time,magX,magY,magZ,accX,accY,accZ,gyrX,gyrY,gyrZ,eulerX,eulerY,eulerZ,linX,linY,linZ,gravX,gravY,gravZ
1686659296.902145,2.5625,-24.75,-43.1875,-0.23,0.34,9.370000000000001,-0.001090830782496456,0.0,0.002181661564992912,183.75,-1.375,-1.8125,-0.01,0.03,-0.43,-0.24,0.31,9.790000000000001
1686659296.956704,3.375,-25.5,-42.875,-0.24,0.33,9.370000000000001,0.001090830782496456,0.0,0.0,183.75,-1.375,-1.8125,-0.01,0.03,-0.42,-0.24,0.31,9.790000000000001
1686659297.009576,2.25,-25.1875,-43.1875,-0.24,0.36,9.39,0.0,0.001090830782496456,-0.001090830782496456,183.75,-1.375,-1.8125,0.01,0.02,-0.39,-0.24,0.31,9.790000000000001
1686659297.059557,2.5625,-24.75,-44.0625,-0.24,0.34,9.370000000000001,0.0,0.001090830782496456,-0.001090830782496456,183.75,-1.375,-1.8125,0.0,0.01,-0.43,-0.24,0.31,9.790000000000001
1686659297.110096,3.375,-24.0,-44.5,-0.24,0.33,9.370000000000001,0.0,0.0,-0.001090830782496456,183.75,-1.375,-1.8125,0.0,0.04,-0.4,-0.24,0.31,9.790000000000001
1686659297.161619,2.5625,-25.1875,-44.5,-0.25,0.34,9.39,0.0,-0.001090830782496456,0.0,183.75,-1.375,-1.8125,0.0,0.04,-0.4,-0.24,0.31,9.790000000000001
1686659297.211548,2.5625,-25.1875,-45.375,-0.25,0.34,9.370000000000001,0.001090830782496456,0.001090830782496456,0.001090830782496456,183.75,-1.375,-1.8125,-0.01,0.03,-0.42,-0.24,0.31,9.790000000000001
1686659297.262554,2.0,-24.75,-43.75,-0.24,0.32,9.34,-0.002181661564992912,-0.002181661564992912,0.001090830782496456,183.75,-1.375,-1.8125,0.0,0.03,-0.43,-0.24,0.31,9.790000000000001
1686659297.311969,2.5625,-24.75,-45.25,-0.26,0.36,9.35,0.0,0.0,0.0,183.75,-1.375,-1.8125,0.0,0.02,-0.39,-0.24,0.31,9.790000000000001
1686659297.362692,3.375,-25.1875,-44.5,-0.24,0.33,9.38,0.001090830782496456,0.0,0.0,183.75,-1.375,-1.8125,-0.01,0.03,-0.42,-0.24,0.31,9.790000000000001
1686659297.413999,2.25,-24.375,-43.1875,-0.26,0.34,9.370000000000001,0.001090830782496456,0.003272492347489368,0.0,183.75,-1.375,-1.8125,0.0,0.04,-0.41000000000000003,-0.24,0.31,9.790000000000001
1686659297.464708,3.75,-25.1875,-43.6875,-0.25,0.33,9.38,0.001090830782496456,-0.003272492347489368,0.0,183.75,-1.375,-1.8125,0.0,0.03,-0.38,-0.24,0.31,9.790000000000001
1686659297.515059,2.5625,-25.5,-44.375,-0.26,0.34,9.370000000000001,-0.001090830782496456,0.001090830782496456,0.001090830782496456,183.75,-1.375,-1.8125,-0.01,0.03,-0.41000000000000003,-0.24,0.31,9.790000000000001
1686659297.565824,0.75,-25.1875,-43.1875,-0.25,0.33,9.38,0.002181661564992912,0.001090830782496456,-0.001090830782496456,183.75,-1.375,-1.8125,-0.01,0.02,-0.42,-0.24,0.31,9.790000000000001
1686659297.616112,2.5625,-24.75,-44.0,-0.25,0.34,9.370000000000001,-0.001090830782496456,0.0,0.0,183.75,-1.375,-1.8125,0.0,0.04,-0.4,-0.24,0.31,9.790000000000001
1686659297.667422,3.75,-25.1875,-43.6875,-0.22,0.33,9.35,-0.001090830782496456,-0.001090830782496456,0.001090830782496456,183.75,-1.375,-1.8125,0.0,0.02,-0.42,-0.24,0.31,9.790000000000001
1686659297.718103,1.5625,-25.5,-44.0,-0.23,0.35000000000000003,9.370000000000001,-0.001090830782496456,0.0,0.002181661564992912,183.75,-1.375,-1.8125,0.0,0.02,-0.4,-0.24,0.31,9.790000000000001
1686659297.768494,2.25,-24.375,-43.6875,-0.22,0.34,9.35,0.001090830782496456,-0.001090830782496456,-0.001090830782496456,183.75,-1.375,-1.8125,0.01,0.04,-0.4,-0.24,0.31,9.790000000000001
1686659297.81911,2.0,-25.875,-44.375,-0.24,0.35000000000000003,9.36,-0.001090830782496456,0.001090830782496456,0.0,183.75,-1.375,-1.8125,0.0,0.02,-0.41000000000000003,-0.24,0.31,9.790000000000001
1686659297.869698,3.0,-25.1875,-43.1875,-0.24,0.35000000000000003,9.370000000000001,0.0,-0.001090830782496456,-0.001090830782496456,183.75,-1.375,-1.8125,0.0,0.03,-0.39,-0.24,0.31,9.790000000000001
1686659297.919839,3.0,-24.75,-44.0,-0.24,0.36,9.38,0.002181661564992912,-0.003272492347489368,0.001090830782496456,183.75,-1.375,-1.8125,0.0,0.01,-0.41000000000000003,-0.24,0.31,9.790000000000001
1686659297.970311,2.0,-25.5,-43.5625,-0.23,0.34,9.370000000000001,0.0,-0.001090830782496456,0.001090830782496456,183.75,-1.375,-1.8125,0.0,0.05,-0.41000000000000003,-0.24,0.31,9.790000000000001
1686659298.020249,2.5625,-25.1875,-44.0,-0.24,0.34,9.370000000000001,0.0,-0.001090830782496456,0.001090830782496456,183.75,-1.375,-1.8125,-0.01,0.03,-0.38,-0.24,0.31,9.790000000000001
1686659298.070414,2.5625,-25.1875,-44.0,-0.23,0.34,9.39,0.0,-0.001090830782496456,0.001090830782496456,183.75,-1.375,-1.8125,-0.01,0.03,-0.4,-0.24,0.31,9.790000000000001
1686659298.122311,2.5625,-24.75,-43.1875,-0.24,0.33,9.370000000000001,0.001090830782496456,0.002181661564992912,0.001090830782496456,183.75,-1.375,-1.8125,-0.01,0.02,-0.4,-0.24,0.31,9.790000000000001
1686659298.172927,2.5625,-25.1875,-44.0,-0.22,0.35000000000000003,9.39,-0.001090830782496456,0.0,0.0,-1864.25,-1.375,-1.8125,-0.01,0.04,-0.41000000000000003,-0.24,0.31,9.790000000000001
1686659298.223258,2.25,-25.1875,-43.1875,-0.24,0.34,9.370000000000001,0.001090830782496456,-0.003272492347489368,-0.001090830782496456,183.75,-1.375,-1.8125,-0.01,0.01,-0.4,-0.24,0.31,9.790000000000001
1686659298.273951,3.75,-25.875,-44.75,-0.23,0.33,9.370000000000001,-0.001090830782496456,-0.001090830782496456,-0.001090830782496456,183.75,-1.375,-1.8125,0.0,0.04,-0.41000000000000003,-0.24,0.31,9.790000000000001
1686659298.324506,2.5625,-25.1875,-42.375,-0.25,0.31,9.39,-0.001090830782496456,0.0,0.0,183.75,-1.375,-1.8125,0.0,0.03,-0.38,-0.24,0.31,9.790000000000001
1686659298.376696,2.5625,-25.1875,-44.25,-0.22,0.36,9.39,0.0,-0.001090830782496456,0.0,183.75,-1.375,-1.8125,-0.01,0.04,-0.39,-0.24,0.31,9.790000000000001
1686659298.427179,3.0,-24.75,-43.875,-0.24,0.33,9.36,-0.002181661564992912,0.001090830782496456,-0.002181661564992912,183.75,-1.375,-1.8125,-0.01,0.02,-0.39,-0.24,0.31,9.790000000000001
1686659298.477953,3.75,-25.1875,-43.875,-0.24,0.33,9.38,0.001090830782496456,-0.002181661564992912,0.0,183.75,-1.375,-1.8125,-0.01,0.03,-0.4,-0.24,0.31,9.790000000000001
1686659298.528308,2.5625,-25.5,-43.0625,-0.25,0.34,9.370000000000001,0.0,-0.001090830782496456,-0.001090830782496456,183.75,-1.375,-1.8125,-0.02,0.02,-0.39,-0.24,0.31,9.790000000000001
1686659298.57857,3.375,-25.5,-43.5,-0.23,0.33,9.34,0.001090830782496456,0.001090830782496456,0.001090830782496456,183.75,-1.375,-1.8125,0.0,0.01,-0.4,-0.24,0.31,9.790000000000001
1686659298.629372,3.0,-24.75,-42.375,-0.26,0.33,9.38,-0.001090830782496456,0.001090830782496456,0.001090830782496456,183.75,-1.375,-1.8125,-0.01,0.01,-0.4,-0.24,0.31,9.790000000000001
1686659298.680088,2.0,-25.5,-44.6875,-0.27,0.33,9.39,0.001090830782496456,-0.001090830782496456,-0.001090830782496456,183.75,-1.375,-1.8125,-0.01,0.03,-0.4,-0.24,0.31,9.790000000000001
1686659298.730721,3.75,-25.1875,-43.5,-0.24,0.34,9.370000000000001,0.002181661564992912,0.0,0.0,183.75,-1.375,-1.8125,-0.01,0.02,-0.4,-0.24,0.31,9.790000000000001
1686659298.781505,2.25,-25.1875,-42.75,-0.24,0.34,9.38,-0.001090830782496456,0.002181661564992912,0.0,183.75,-1.375,-1.8125,0.0,0.02,-0.41000000000000003,-0.24,0.31,9.790000000000001
1686659298.832318,2.5625,-24.375,-44.375,-0.25,0.33,9.370000000000001,0.0,-0.001090830782496456,0.0,183.75,-1.375,-1.8125,0.0,0.03,-0.4,-0.24,0.31,9.790000000000001
1686659298.883457,3.375,-25.1875,-43.5,-0.27,0.35000000000000003,9.35,-0.001090830782496456,-0.001090830782496456,0.0,183.75,-1.375,-1.8125,-0.01,0.03,-0.38,-0.24,0.31,9.790000000000001
1686659298.933651,3.0,-24.375,-44.375,-0.24,0.31,9.370000000000001,0.002181661564992912,0.0,0.002181661564992912,183.75,-1.375,-1.8125,0.0,0.02,-0.41000000000000003,-0.24,0.31,9.790000000000001
1686659298.983971,3.75,-25.5,-44.6875,-0.24,0.33,9.39,0.002181661564992912,0.002181661564992912,0.001090830782496456,183.75,-1.375,-1.8125,-0.01,0.04,-0.4,-0.24,0.31,9.790000000000001
1686659299.034142,3.0,-25.875,-43.5,-0.27,0.33,9.39,-0.001090830782496456,-0.002181661564992912,0.0,183.75,-1.375,-1.8125,0.0,0.04,-0.38,-0.24,0.31,9.790000000000001
1686659299.085493,3.75,-25.1875,-43.5625,-0.24,0.33,9.38,-0.001090830782496456,0.001090830782496456,-0.001090830782496456,183.75,-1.375,-1.8125,0.0,0.04,-0.4,-0.24,0.31,9.790000000000001
1686659299.135613,2.25,-25.5,-44.0,-0.24,0.33,9.38,-0.001090830782496456,0.0,-0.002181661564992912,183.75,-1.375,-1.8125,0.0,0.01,-0.38,-0.24,0.31,9.790000000000001
1686659299.185823,2.25,-25.1875,-44.6875,-0.23,0.34,9.38,0.002181661564992912,0.0,-0.001090830782496456,183.75,-1.375,-1.8125,0.0,0.04,-0.4,-0.24,0.31,9.790000000000001
1686659299.235765,3.375,-25.875,-44.375,-0.24,0.33,9.39,0.0,0.001090830782496456,0.001090830782496456,183.75,-1.375,-1.8125,-0.01,0.01,-0.4,-0.24,0.31,9.790000000000001
1686659299.286161,3.0,-26.1875,-43.1875,-0.24,0.33,9.38,0.0,0.002181661564992912,0.0,183.75,-1.375,-1.8125,-0.01,0.06,-0.39,-0.24,0.31,9.790000000000001
1686659299.337247,2.5625,-25.1875,-43.5625,-0.25,0.35000000000000003,9.39,0.0,0.0,-0.001090830782496456,183.75,-1.375,-1.8125,0.0,0.04,-0.42,-0.24,0.31,9.790000000000001
1686659299.387586,2.5625,-25.1875,-43.5625,-0.25,0.34,9.39,0.001090830782496456,0.0,-0.001090830782496456,183.75,-1.375,-1.8125,0.0,0.03,-0.38,-0.24,0.31,9.790000000000001
1686659299.437937,3.0,-24.375,-43.875,-0.24,0.33,9.39,0.0,-0.001090830782496456,-0.001090830782496456,183.75,-1.375,-1.8125,0.0,0.03,-0.42,-0.24,0.31,9.790000000000001
1686659299.487992,3.375,-24.75,-44.0,-0.27,0.33,9.370000000000001,0.002181661564992912,0.003272492347489368,0.001090830782496456,183.75,-1.375,-1.8125,-0.03,0.01,-0.42,-0.24,0.31,9.790000000000001
1686659299.538143,2.5625,-24.375,-45.1875,-0.24,0.33,9.39,0.001090830782496456,0.002181661564992912,-0.001090830782496456,183.75,-1.375,-1.8125,0.01,0.02,-0.38,-0.24,0.31,9.790000000000001
1686659299.590532,1.1875,-25.5,-44.75,-0.23,0.35000000000000003,9.41,-0.001090830782496456,0.0,0.002181661564992912,183.75,-1.375,-1.8125,-0.01,0.03,-0.41000000000000003,-0.24,0.31,9.790000000000001
1686659299.640695,2.25,-24.75,-43.0625,-0.24,0.33,9.38,0.0,0.001090830782496456,0.0,183.75,-1.375,-1.8125,-0.02,0.04,-0.41000000000000003,-0.24,0.31,9.790000000000001
1686659299.690886,2.5625,-24.375,-43.5,-0.23,0.33,9.370000000000001,0.0,0.001090830782496456,0.001090830782496456,183.75,-1.375,-1.8125,-0.01,0.01,-0.42,-0.24,0.31,9.790000000000001
1686659299.74133,3.0,-24.75,-45.0625,-0.26,0.35000000000000003,9.39,0.0,0.002181661564992912,-0.002181661564992912,183.75,-1.375,-1.8125,0.0,0.03,-0.4,-0.24,0.31,9.790000000000001
1686659299.792246,3.0,-25.1875,-43.5,-0.24,0.35000000000000003,9.370000000000001,-0.001090830782496456,-0.001090830782496456,0.001090830782496456,183.75,-1.375,-1.8125,-0.01,0.03,-0.4,-0.24,0.31,9.790000000000001
1686659299.843183,3.375,-25.5,-43.5,-0.25,0.33,9.38,0.0,0.0,0.0,183.75,-1.375,-1.8125,-0.01,0.04,-0.42,-0.24,0.31,9.790000000000001
1686659299.893319,2.0,-24.75,-44.75,-0.25,0.34,9.39,-0.001090830782496456,0.001090830782496456,0.0,183.75,-1.375,-1.8125,0.0,0.03,-0.41000000000000003,-0.24,0.31,9.790000000000001
1686659299.943581,2.5625,-24.75,-43.0625,-0.25,0.33,9.4,0.001090830782496456,0.003272492347489368,0.0,183.75,-1.375,-1.8125,0.0,0.03,-0.39,-0.24,0.31,9.790000000000001
1686659299.99418,3.375,-24.75,-44.75,-0.26,0.34,9.39,-0.001090830782496456,-0.001090830782496456,-0.001090830782496456,183.75,-1.375,-1.8125,-0.01,0.03,-0.42,-0.24,0.31,9.790000000000001
1686659300.045094,4.0625,-25.1875,-44.25,-0.25,0.34,9.4,0.003272492347489368,0.001090830782496456,-0.001090830782496456,183.75,-1.375,-1.8125,-0.01,0.02,-0.4,-0.24,0.31,9.790000000000001
1686659300.095726,2.5625,-24.75,-44.25,-0.24,0.33,9.39,-0.001090830782496456,0.0,-0.001090830782496456,183.75,-1.375,-1.8125,-0.02,0.01,-0.41000000000000003,-0.24,0.31,9.790000000000001
1686659300.146292,2.25,-25.1875,-43.875,-0.24,0.34,9.370000000000001,0.0,-0.001090830782496456,-0.001090830782496456,183.75,-1.375,-1.8125,-0.02,0.0,-0.4,-0.24,0.31,9.790000000000001
1686659300.197102,3.375,-25.1875,-44.375,-0.25,0.33,9.39,0.0,-0.002181661564992912,0.0,183.75,-1.375,-1.8125,0.0,0.04,-0.42,-0.24,0.31,9.790000000000001
1686659300.24738,3.375,-25.5,-43.5,-0.24,0.35000000000000003,9.39,0.001090830782496456,0.001090830782496456,-0.001090830782496456,183.75,-1.375,-1.8125,-0.01,0.02,-0.37,-0.24,0.31,9.790000000000001
1686659300.298174,2.25,-24.0,-44.0,-0.26,0.35000000000000003,9.39,-0.001090830782496456,0.0,-0.001090830782496456,183.75,-1.375,-1.8125,-0.01,0.03,-0.41000000000000003,-0.24,0.31,9.790000000000001
1686659300.348397,2.25,-25.5,-44.25,-0.27,0.35000000000000003,9.39,0.0,-0.003272492347489368,0.0,183.75,-1.375,-1.8125,-0.02,0.02,-0.41000000000000003,-0.24,0.31,9.790000000000001
1686659300.399027,2.5625,-25.1875,-42.6875,-0.24,0.34,9.4,-0.001090830782496456,-0.002181661564992912,0.001090830782496456,183.75,-1.375,-1.8125,-0.02,0.02,-0.41000000000000003,-0.24,0.31,9.790000000000001
1686659300.44918,3.0,-24.75,-44.25,-0.24,0.36,9.39,0.0,-0.003272492347489368,-0.001090830782496456,183.75,-1.375,-1.8125,-0.01,0.03,-0.39,-0.24,0.31,9.790000000000001
1686659300.499376,2.5625,-25.5,-43.5625,-0.26,0.34,9.39,-0.001090830782496456,0.001090830782496456,0.0,183.75,-1.375,-1.8125,-0.01,0.0,-0.41000000000000003,-0.24,0.31,9.790000000000001
1686659300.549822,3.0,-24.75,-44.75,-0.24,0.33,9.38,0.001090830782496456,0.0,0.0,183.75,-1.375,-1.8125,0.0,0.04,-0.37,-0.24,0.31,9.790000000000001
1686659300.599743,2.5625,-25.5,-43.5,-0.26,0.32,9.39,0.002181661564992912,0.0,-0.001090830782496456,183.75,-1.375,-1.8125,0.0,0.04,-0.41000000000000003,-0.24,0.31,9.790000000000001
1686659300.64957,2.5625,-24.75,-43.875,-0.25,0.35000000000000003,9.370000000000001,0.001090830782496456,-0.003272492347489368,0.001090830782496456,183.75,-1.375,-1.8125,0.0,0.02,-0.43,-0.24,0.31,9.790000000000001
1686659300.700304,2.5625,-25.1875,-44.25,-0.27,0.35000000000000003,9.38,0.0,-0.003272492347489368,0.003272492347489368,183.75,-1.375,-1.8125,-0.01,0.03,-0.4,-0.24,0.31,9.790000000000001
1686659300.750483,2.5625,-24.75,-44.25,-0.25,0.34,9.36,-0.001090830782496456,-0.002181661564992912,-0.002181661564992912,183.75,-1.375,-1.8125,-0.01,0.02,-0.44,-0.24,0.31,9.790000000000001
1686659300.802076,3.375,-25.1875,-44.6875,-0.25,0.36,9.370000000000001,0.001090830782496456,0.0,0.0,183.75,-1.375,-1.8125,-0.01,0.01,-0.4,-0.24,0.31,9.790000000000001
1686659300.85219,2.5625,-25.5,-43.1875,-0.25,0.34,9.39,0.001090830782496456,-0.001090830782496456,0.0,183.75,-1.375,-1.8125,0.0,0.03,-0.42,-0.24,0.31,9.790000000000001
1686659300.902405,2.25,-25.1875,-44.25,-0.24,0.34,9.39,0.0,-0.001090830782496456,0.0,183.75,-1.375,-1.8125,0.0,0.01,-0.42,-0.24,0.31,9.790000000000001
1686659300.952553,3.375,-25.1875,-44.6875,-0.25,0.35000000000000003,9.38,0.0,-0.001090830782496456,0.0,183.75,-1.375,-1.8125,0.0,0.01,-0.42,-0.24,0.31,9.790000000000001
1686659301.00379,2.25,-24.75,-44.0,-0.26,0.35000000000000003,9.370000000000001,0.0,-0.004363323129985824,0.002181661564992912,183.75,-1.375,-1.8125,0.0,0.04,-0.4,-0.24,0.31,9.790000000000001
1686659301.053665,3.0,-25.1875,-43.875,-0.26,0.34,9.39,0.001090830782496456,-0.002181661564992912,0.0,183.75,-1.375,-1.8125,0.0,0.01,-0.42,-0.24,0.31,9.790000000000001
1686659301.103942,3.0,-24.375,-43.5625,-0.25,0.35000000000000003,9.38,0.001090830782496456,-0.001090830782496456,-0.001090830782496456,183.75,-1.375,-1.8125,-0.01,0.02,-0.41000000000000003,-0.24,0.31,9.790000000000001
1686659301.15406,4.0625,-25.5,-42.375,-0.24,0.34,9.41,0.001090830782496456,-0.001090830782496456,0.0,183.75,-1.375,-1.8125,0.01,0.03,-0.4,-0.24,0.31,9.790000000000001
1686659301.204471,1.1875,-24.75,-43.0625,-0.26,0.34,9.39,0.0,0.001090830782496456,0.0,183.75,-1.375,-1.8125,0.0,0.03,-0.42,-0.24,0.31,9.790000000000001
1686659301.255463,2.5625,-25.5,-43.5,-0.25,0.37,9.38,-0.001090830782496456,-0.001090830782496456,-0.001090830782496456,183.75,-1.375,-1.8125,-0.01,0.02,-0.41000000000000003,-0.24,0.31,9.790000000000001
1686659301.305629,3.75,-25.875,-44.25,-0.26,0.33,9.39,0.0,-0.002181661564992912,0.0,183.75,-1.375,-1.8125,0.0,0.02,-0.41000000000000003,-0.24,0.31,9.790000000000001
1686659301.355807,1.5625,-25.5,-44.25,-0.25,0.33,9.39,0.001090830782496456,-0.002181661564992912,0.0,183.75,-1.375,-1.8125,0.0,0.03,-0.42,-0.24,0.31,9.790000000000001
1686659301.406108,3.0,-24.75,-44.6875,-0.25,0.34,9.38,-0.002181661564992912,0.001090830782496456,-0.001090830782496456,183.75,-1.375,-1.8125,-0.02,0.05,-0.43,-0.24,0.31,9.790000000000001
1686659301.456242,3.0,-25.1875,-44.0,-0.23,0.31,9.39,-0.001090830782496456,-0.001090830782496456,0.002181661564992912,183.75,-1.375,-1.8125,0.0,0.02,-0.42,-0.24,0.31,9.790000000000001
1686659301.50769,2.25,-25.1875,-43.875,-0.24,0.33,9.38,-0.001090830782496456,0.0,0.001090830782496456,183.75,-1.375,-1.8125,0.0,0.04,-0.41000000000000003,-0.24,0.31,9.790000000000001
1686659301.557927,2.5625,-25.5,-43.875,-0.23,0.32,9.39,0.001090830782496456,-0.001090830782496456,0.002181661564992912,183.75,-1.375,-1.8125,-0.01,0.0,-0.42,-0.24,0.31,9.790000000000001
1686659301.608061,2.5625,-24.75,-43.875,-0.23,0.34,9.4,0.0,-0.003272492347489368,-0.002181661564992912,183.75,-1.375,-1.8125,0.0,0.03,-0.41000000000000003,-0.24,0.31,9.790000000000001
1686659301.658222,2.0,-25.5,-43.875,-0.26,0.33,9.39,0.001090830782496456,-0.003272492347489368,0.001090830782496456,183.75,-1.375,-1.8125,-0.02,0.03,-0.42,-0.24,0.31,9.790000000000001
1686659301.708608,3.0,-24.75,-44.25,-0.25,0.36,9.4,-0.001090830782496456,0.001090830782496456,-0.001090830782496456,183.75,-1.375,-1.8125,0.0,0.02,-0.43,-0.24,0.31,9.790000000000001
1686659301.759548,3.75,-25.5,-43.875,-0.26,0.34,9.38,0.002181661564992912,-0.004363323129985824,0.001090830782496456,183.75,-1.375,-1.8125,0.01,0.03,-0.4,-0.24,0.31,9.790000000000001
1686659301.809648,2.25,-24.75,-44.25,-0.26,0.33,9.38,0.0,-0.001090830782496456,0.001090830782496456,183.75,-1.375,-1.8125,0.0,0.01,-0.43,-0.24,0.31,9.790000000000001
1686659301.858772,2.25,-25.5,-43.875,-0.26,0.33,9.38,0.001090830782496456,-0.002181661564992912,0.0,183.75,-1.375,-1.8125,0.0,0.04,-0.43,-0.24,0.31,9.790000000000001
1686659301.909164,2.5625,-24.75,-45.0625,-0.27,0.35000000000000003,9.39,0.0,-0.001090830782496456,-0.001090830782496456,183.75,-1.375,-1.8125,0.0,0.02,-0.44,-0.24,0.31,9.790000000000001
1686659301.960396,3.0,-24.375,-44.5625,-0.26,0.33,9.370000000000001,0.002181661564992912,0.0,0.002181661564992912,183.75,-1.375,-1.8125,0.0,0.02,-0.46,-0.24,0.31,9.790000000000001
1686659302.010447,2.5625,-25.1875,-43.5,-0.23,0.32,9.39,0.0,0.0,0.0,183.75,-1.375,-1.8125,0.0,0.02,-0.43,-0.24,0.31,9.790000000000001
1686659302.059917,2.5625,-25.1875,-44.25,-0.23,0.34,9.38,0.001090830782496456,-0.001090830782496456,0.001090830782496456,183.75,-1.375,-1.8125,-0.01,0.01,-0.45,-0.24,0.31,9.790000000000001
1686659302.109823,3.0,-25.1875,-43.0,-0.26,0.33,9.39,-0.002181661564992912,0.002181661564992912,0.0,183.75,-1.375,-1.8125,-0.01,0.03,-0.43,-0.24,0.31,9.790000000000001
1686659302.160142,1.5625,-25.5,-43.0625,-0.25,0.31,9.39,-0.001090830782496456,0.003272492347489368,-0.001090830782496456,183.75,-1.375,-1.8125,-0.01,0.03,-0.4,-0.24,0.31,9.790000000000001
1686659302.211467,2.25,-25.1875,-44.25,-0.26,0.35000000000000003,9.38,0.0,0.0,0.001090830782496456,183.75,-1.375,-1.8125,-0.02,0.02,-0.42,-0.24,0.31,9.790000000000001
1686659302.261426,3.375,-25.5,-44.25,-0.24,0.35000000000000003,9.370000000000001,-0.001090830782496456,-0.001090830782496456,-0.001090830782496456,183.75,-1.375,-1.8125,-0.01,0.03,-0.42,-0.24,0.31,9.790000000000001
1686659302.311597,4.5,-25.875,-43.75,-0.26,0.35000000000000003,9.370000000000001,-0.001090830782496456,0.001090830782496456,0.0,183.75,-1.375,-1.8125,-0.02,0.01,-0.41000000000000003,-0.24,0.31,9.790000000000001
1686659302.36087,3.0,-25.875,-45.5,-0.26,0.34,9.39,0.0,0.003272492347489368,-0.003272492347489368,183.75,-1.375,-1.8125,0.0,0.01,-0.44,-0.24,0.31,9.790000000000001
1686659302.410926,3.375,-25.875,-43.375,-0.24,0.35000000000000003,9.38,0.0,0.001090830782496456,0.001090830782496456,183.75,-1.375,-1.8125,0.0,0.03,-0.4,-0.24,0.31,9.790000000000001
1686659302.462243,2.25,-25.875,-44.1875,-0.27,0.35000000000000003,9.39,-0.001090830782496456,0.0,0.001090830782496456,183.75,-1.375,-1.8125,-0.01,0.0,-0.41000000000000003,-0.24,0.31,9.790000000000001
1686659302.512652,2.5625,-24.0,-43.875,-0.24,0.34,9.39,-0.002181661564992912,0.002181661564992912,0.001090830782496456,183.75,-1.375,-1.8125,-0.01,0.03,-0.43,-0.24,0.31,9.790000000000001
1686659302.562569,3.0,-24.375,-44.6875,-0.24,0.35000000000000003,9.38,0.001090830782496456,-0.002181661564992912,0.0,183.75,-1.375,-1.8125,-0.01,0.04,-0.42,-0.24,0.31,9.790000000000001
1686659302.612023,3.0,-25.5,-44.1875,-0.25,0.33,9.36,-0.002181661564992912,0.001090830782496456,0.001090830782496456,183.75,-1.375,-1.8125,0.0,0.01,-0.41000000000000003,-0.24,0.31,9.790000000000001
1686659302.662202,3.0,-24.75,-43.375,-0.24,1.62,9.38,-0.002181661564992912,0.0,-0.002181661564992912,183.75,-1.375,-1.8125,0.0,0.02,-0.41000000000000003,-0.24,0.31,9.790000000000001
1686659302.713826,3.0,-26.1875,-44.25,-0.25,0.35000000000000003,9.39,-0.002181661564992912,-0.001090830782496456,-0.002181661564992912,183.75,-1.375,-1.8125,-0.01,0.02,-0.42,-0.24,0.31,9.790000000000001
1686659302.764204,3.0,-24.375,-42.6875,-0.27,0.33,9.370000000000001,-0.001090830782496456,-0.001090830782496456,0.001090830782496456,183.75,-1.375,-1.8125,0.0,0.02,-0.42,-0.24,0.31,9.790000000000001
1686659302.814749,3.0,-25.1875,-43.375,-0.26,0.32,9.36,-0.002181661564992912,0.001090830782496456,0.0,183.75,-1.375,-1.8125,0.0,0.04,-0.43,-0.24,0.31,9.790000000000001
1686659302.864935,2.5625,-24.75,-43.5,-0.23,0.34,9.39,0.0,0.0,0.002181661564992912,183.75,-1.375,-1.8125,0.0,0.01,-0.42,-0.24,0.31,9.790000000000001
1686659302.915147,2.5625,-25.5,-43.375,-0.24,0.33,9.38,0.0,-0.001090830782496456,0.001090830782496456,183.75,-1.375,-1.8125,0.0,0.03,-0.44,-0.24,0.31,9.790000000000001
1686659302.965809,2.25,-25.5,-44.25,-0.25,0.33,9.41,0.0,0.002181661564992912,0.0,183.75,-1.375,-1.8125,-0.01,0.05,-0.44,-0.24,0.31,9.790000000000001
1686659303.016588,3.0,-25.5,-44.25,-0.24,0.33,9.39,-0.001090830782496456,0.001090830782496456,-0.001090830782496456,183.75,-1.375,-1.8125,-0.01,0.03,-0.42,-0.24,0.31,9.790000000000001
1686659303.066679,2.5625,-25.1875,-42.1875,-0.26,0.33,9.39,-0.002181661564992912,0.003272492347489368,0.001090830782496456,183.75,-1.375,-1.8125,0.0,0.02,-0.42,-0.24,0.31,9.790000000000001
1686659303.116771,2.25,-24.0,-44.1875,-0.26,0.34,9.38,-0.001090830782496456,-0.001090830782496456,0.001090830782496456,183.75,-1.375,-1.8125,0.0,0.03,-0.44,-0.24,0.31,9.790000000000001
1686659303.166887,3.375,-24.75,-43.0,-0.25,0.33,9.370000000000001,-0.001090830782496456,-0.001090830782496456,0.0,183.75,-1.375,-1.8125,0.0,0.04,-0.41000000000000003,-0.24,0.31,9.790000000000001
1686659303.216952,2.5625,-24.375,-43.75,-0.26,0.34,9.370000000000001,0.0,-0.001090830782496456,0.002181661564992912,183.75,-1.375,-1.8125,-0.01,0.03,-0.44,-0.24,0.31,9.790000000000001
1686659303.267637,3.375,-25.1875,-43.75,-0.25,0.33,9.4,-0.001090830782496456,0.001090830782496456,0.001090830782496456,183.75,-1.375,-1.8125,-0.01,0.02,-0.4,-0.24,0.31,9.790000000000001
1686659303.318206,2.5625,-25.1875,-43.5,-0.24,0.34,9.4,-0.001090830782496456,-0.004363323129985824,0.002181661564992912,183.75,-1.375,-1.8125,-0.01,0.06,-0.42,-0.24,0.31,9.790000000000001
1686659303.368334,3.0,-25.875,-44.25,-0.24,0.35000000000000003,9.39,-0.001090830782496456,0.002181661564992912,0.0,183.75,-1.375,-1.8125,0.0,0.02,-0.42,-0.24,0.31,9.790000000000001
1686659303.418509,3.375,-25.1875,-43.875,-0.25,0.34,9.4,0.0,0.001090830782496456,-0.002181661564992912,183.75,-1.375,-1.8125,0.0,0.03,-0.42,-0.24,0.31,9.790000000000001
1686659303.468554,2.25,-25.5,-43.375,-0.22,0.32,9.39,0.001090830782496456,0.001090830782496456,0.002181661564992912,183.75,-1.375,-1.8125,-0.01,0.04,-0.42,-0.24,0.31,9.790000000000001
1686659303.519191,2.5625,-24.375,-44.5625,-0.25,0.34,9.370000000000001,0.001090830782496456,-0.001090830782496456,0.001090830782496456,183.75,-1.375,-1.8125,0.0,0.02,-0.41000000000000003,-0.24,0.31,9.790000000000001
1686659303.569209,2.5625,-24.75,-43.0,-0.23,0.34,9.38,0.0,-0.001090830782496456,0.001090830782496456,183.75,-1.375,-1.8125,0.0,0.02,-0.42,-0.24,0.31,9.790000000000001
1686659303.619249,3.75,-25.1875,-45.0,-0.22,0.34,9.370000000000001,0.0,-0.002181661564992912,0.001090830782496456,183.75,-1.375,-1.8125,-0.01,0.01,-0.42,-0.24,0.31,9.790000000000001
1686659303.669369,2.25,-25.1875,-44.25,-0.24,0.31,9.38,0.0,0.001090830782496456,-0.001090830782496456,183.75,-1.375,-1.8125,0.0,0.04,-0.42,-0.24,0.31,9.790000000000001
1686659303.719528,3.375,-24.75,-43.5,-0.23,0.33,9.36,-0.001090830782496456,0.0,-0.001090830782496456,183.75,-1.375,-1.8125,-0.02,0.02,-0.43,-0.24,0.31,9.790000000000001
1686659303.770563,2.0,-25.1875,-43.0,-0.25,0.36,9.39,0.001090830782496456,0.0,-0.001090830782496456,183.75,-1.375,-1.8125,-0.01,0.03,-0.43,-0.24,0.31,9.790000000000001
1686659303.821636,3.0,-25.5,-43.0625,-0.22,0.33,9.39,-0.001090830782496456,0.0,-0.001090830782496456,183.75,-1.375,-1.8125,0.0,0.03,-0.4,-0.24,0.31,9.790000000000001
1686659303.87356,3.375,-24.375,-43.875,-0.26,0.34,9.38,0.001090830782496456,0.001090830782496456,0.0,183.75,-1.375,-1.8125,-0.02,0.02,-0.43,-0.24,0.31,9.790000000000001
1686659303.926748,3.0,-24.75,-43.375,-0.26,0.33,9.370000000000001,0.0,0.0,0.001090830782496456,183.75,-1.375,-1.8125,0.0,0.0,-0.4,-0.24,0.31,9.790000000000001
1686659303.979045,3.0,-24.75,-43.875,-0.24,0.35000000000000003,9.36,-0.001090830782496456,0.001090830782496456,0.001090830782496456,183.75,-1.375,-1.8125,0.0,0.03,-0.38,-0.24,0.31,9.790000000000001
1686659304.031375,3.375,-24.75,-44.25,-0.24,0.34,9.36,0.001090830782496456,0.001090830782496456,-0.001090830782496456,183.75,-1.375,-1.8125,-0.02,0.03,-0.43,-0.24,0.31,9.790000000000001
1686659304.083135,3.375,-25.1875,-43.875,-0.24,0.34,9.39,0.001090830782496456,-0.003272492347489368,0.001090830782496456,183.75,-1.375,-1.8125,0.01,0.04,-0.4,-0.24,0.31,9.790000000000001
1686659304.133727,2.25,-25.1875,-42.25,-0.25,0.31,9.38,0.001090830782496456,-0.001090830782496456,0.001090830782496456,183.75,-1.375,-1.8125,0.0,0.02,-0.39,-0.24,0.31,9.790000000000001
1686659304.18428,3.0,-25.1875,-44.6875,-0.26,0.34,9.36,0.001090830782496456,0.0,-0.001090830782496456,183.75,-1.375,-1.8125,0.0,0.03,-0.4,-0.24,0.31,9.790000000000001
1686659304.234506,2.5625,-25.5,-43.0,-0.26,0.33,9.32,-0.001090830782496456,-0.001090830782496456,0.0,183.75,-1.375,-1.8125,-0.02,0.03,-0.42,-0.24,0.31,9.790000000000001
1686659304.284501,2.25,-24.75,-43.5,-0.22,0.36,9.370000000000001,0.0,-0.004363323129985824,-0.001090830782496456,183.75,-1.375,-1.8125,0.0,0.02,-0.4,-0.24,0.31,9.790000000000001
1686659304.335283,2.5625,-25.1875,-43.875,-0.24,0.34,9.38,0.002181661564992912,-0.003272492347489368,0.0,183.75,-1.375,-1.8125,0.0,0.01,-0.42,-0.24,0.31,9.790000000000001
1686659304.386013,2.0,-25.5,-44.25,-0.26,0.33,9.35,-0.001090830782496456,0.001090830782496456,0.001090830782496456,183.75,-1.375,-1.8125,0.0,0.06,-0.4,-0.24,0.31,9.790000000000001
1686659304.435686,3.75,-25.1875,-42.6875,-0.25,0.33,9.39,0.0,-0.001090830782496456,0.001090830782496456,183.75,-1.375,-1.8125,-0.01,0.05,-0.42,-0.24,0.31,9.790000000000001
1686659304.48621,2.5625,-25.875,-43.0625,-0.25,0.34,9.370000000000001,0.001090830782496456,0.001090830782496456,0.001090830782496456,183.75,-1.375,-1.8125,0.0,0.02,-0.41000000000000003,-0.24,0.31,9.790000000000001
1686659304.535718,3.75,-24.375,-43.875,-0.26,0.3,9.370000000000001,-0.001090830782496456,0.0,0.0,183.75,-1.375,-1.8125,0.0,0.03,-0.39,-0.24,0.31,9.790000000000001
1686659304.587153,3.375,-25.1875,-43.5,-0.25,0.32,9.370000000000001,0.002181661564992912,-0.001090830782496456,-0.001090830782496456,183.75,-1.375,-1.8125,-0.01,0.02,-0.4,-0.24,0.31,9.790000000000001
1686659304.636739,2.25,-25.1875,-43.375,-0.26,0.33,9.36,0.001090830782496456,-0.002181661564992912,0.001090830782496456,183.75,-1.375,-1.8125,0.0,0.02,-0.39,-0.24,0.31,9.790000000000001
1686659304.686774,2.0,-25.1875,-43.375,-0.26,0.33,9.36,0.0,0.0,-0.001090830782496456,183.75,-1.375,-1.8125,-0.01,0.01,-0.4,-0.24,0.31,9.790000000000001
1686659304.736113,3.0,-25.5,-44.5625,-0.25,0.33,9.370000000000001,0.001090830782496456,-0.004363323129985824,0.0,183.75,-1.375,-1.8125,0.0,0.04,-0.41000000000000003,-0.24,0.31,9.790000000000001
1686659304.78654,3.0,-24.375,-44.25,-0.23,0.34,9.370000000000001,0.0,0.0,-0.001090830782496456,183.75,-1.375,-1.8125,0.0,0.05,-0.43,-0.24,0.31,9.790000000000001
1686659304.836175,2.5625,-25.1875,-44.25,-0.24,0.33,9.370000000000001,0.001090830782496456,-0.001090830782496456,0.0,183.75,-1.375,-1.8125,-0.01,0.02,-0.42,-0.24,0.31,9.790000000000001
1686659304.887771,1.5625,-25.1875,-43.875,-0.24,0.37,9.370000000000001,0.001090830782496456,-0.004363323129985824,0.001090830782496456,183.75,-1.375,-1.8125,0.0,0.03,-0.39,-0.24,0.31,9.790000000000001
1686659304.93735,3.75,-25.5,-44.5625,-0.24,0.33,9.38,0.001090830782496456,-0.001090830782496456,-0.002181661564992912,183.75,-1.375,-1.8125,-0.01,0.04,-0.43,-0.24,0.31,9.790000000000001
1686659304.987196,3.375,-25.5,-43.0625,-0.25,0.34,9.36,0.001090830782496456,-0.001090830782496456,0.002181661564992912,183.75,-1.375,-1.8125,-0.01,0.04,-0.42,-0.24,0.31,9.790000000000001
1686659305.037577,3.0,-25.5,-44.25,-0.24,0.33,9.36,-0.001090830782496456,-0.001090830782496456,0.0,183.75,-1.375,-1.8125,-0.01,0.02,-0.41000000000000003,-0.24,0.31,9.790000000000001
1686659305.087604,3.375,-25.1875,-44.1875,-0.25,0.33,9.370000000000001,0.0,0.0,0.0,183.75,-1.375,-1.8125,0.0,0.03,-0.4,-0.24,0.31,9.790000000000001
1686659305.137492,2.5625,-25.5,-44.25,-0.25,0.34,9.39,0.001090830782496456,-0.002181661564992912,-0.001090830782496456,183.75,-1.375,-1.8125,0.0,0.03,-0.4,-0.24,0.31,9.790000000000001
1686659305.187463,2.25,-24.375,-43.75,-0.25,0.36,9.35,-0.001090830782496456,-0.001090830782496456,0.001090830782496456,183.75,-1.375,-1.8125,-0.01,0.01,-0.39,-0.24,0.31,9.790000000000001
1686659305.236888,2.25,-25.5,-44.1875,-0.24,0.34,9.38,0.0,0.002181661564992912,0.003272492347489368,183.75,-1.375,-1.8125,-0.02,0.01,-0.39,-0.24,0.31,9.790000000000001
1686659305.286873,3.375,-25.5,-43.75,-0.24,0.35000000000000003,9.38,-0.001090830782496456,0.001090830782496456,0.001090830782496456,183.75,-1.375,-1.8125,0.0,0.03,-0.43,-0.24,0.31,9.790000000000001
1686659305.336582,3.375,-25.5,-43.0,-0.25,0.34,9.38,-0.001090830782496456,-0.001090830782496456,0.0,183.75,-1.375,-1.8125,-0.01,0.02,-0.37,-0.24,0.31,9.790000000000001
1686659305.388765,4.0625,-25.1875,-44.25,-0.24,0.34,9.36,0.0,-0.003272492347489368,0.0,183.75,-1.375,-1.8125,-0.01,0.04,-0.37,-0.24,0.31,9.790000000000001
1686659305.439216,3.75,-25.5,-44.5625,-0.24,0.33,9.36,0.0,-0.002181661564992912,-0.001090830782496456,183.75,-1.375,-1.8125,-0.01,0.01,-0.43,-0.24,0.31,9.790000000000001
1686659305.489545,4.0625,-24.375,-43.375,-0.22,0.34,9.38,0.0,0.001090830782496456,0.0,183.75,-1.375,-1.8125,-0.01,0.02,-0.4,-0.24,1.59,9.790000000000001
1686659305.539897,2.25,-25.5,-43.375,-0.25,0.33,9.38,0.0,-0.001090830782496456,0.0,183.75,-1.375,-1.8125,-0.01,0.02,-0.42,-0.24,0.31,9.790000000000001
1686659305.590534,3.0,-25.5,-44.6875,-0.26,0.36,9.370000000000001,0.0,0.001090830782496456,0.0,183.75,-1.375,-1.8125,-0.01,0.02,-0.39,-0.24,0.31,9.790000000000001
1686659305.640813,2.5625,-25.1875,-44.1875,-0.27,0.34,9.35,0.002181661564992912,0.001090830782496456,0.0,183.75,-1.375,-1.8125,-0.01,0.0,-0.4,-0.24,0.31,9.790000000000001
1686659305.691583,2.5625,-25.1875,-43.875,-0.25,0.33,9.35,-0.001090830782496456,0.001090830782496456,0.002181661564992912,183.75,-1.375,-1.8125,-0.03,0.01,-0.41000000000000003,-0.24,0.31,9.790000000000001
1686659305.741889,3.75,-24.75,2003.8125,-0.22,0.33,9.36,-0.001090830782496456,0.002181661564992912,-0.002181661564992912,183.75,-1.375,-1.8125,-0.01,0.04,-0.39,-0.24,0.31,9.790000000000001
1686659305.792182,2.0,-24.75,-42.6875,-0.24,0.36,9.38,0.0,0.002181661564992912,-0.001090830782496456,183.75,-1.375,-1.8125,-0.01,0.01,-0.43,-0.24,0.31,9.790000000000001
1686659305.84255,4.75,-25.1875,-43.75,-0.22,0.34,9.39,0.0,0.002181661564992912,0.0,183.75,-1.375,-1.8125,-0.01,0.03,-0.4,-0.24,0.31,9.790000000000001
1686659305.893131,3.0,-25.1875,-43.75,-0.26,0.33,9.38,0.001090830782496456,0.002181661564992912,0.0,183.75,-1.375,-1.8125,0.0,0.03,-0.41000000000000003,-0.24,0.31,9.790000000000001
1686659305.944013,2.5625,-24.75,-44.5625,-0.24,0.34,9.34,0.002181661564992912,-0.002181661564992912,-0.001090830782496456,183.75,-8.6875,-1.8125,0.0,0.03,-0.41000000000000003,-0.24,0.31,9.790000000000001
1686659305.994304,3.0,-24.75,-43.0,-0.28,0.31,9.36,0.001090830782496456,0.0,0.0,183.75,-1.375,-1.8125,0.0,0.02,-0.4,-0.24,0.31,9.790000000000001
1686659306.044174,2.25,-25.875,-44.1875,-0.25,0.32,9.36,0.001090830782496456,0.003272492347489368,-0.001090830782496456,183.75,-1.375,-1.8125,0.0,0.02,-0.41000000000000003,-0.24,0.31,9.790000000000001
1686659306.094078,2.0,-25.875,-44.1875,-0.25,0.33,9.36,0.001090830782496456,-0.001090830782496456,0.002181661564992912,183.75,-1.375,-1.8125,-0.01,0.02,-0.38,-0.24,0.31,9.790000000000001
1686659306.144376,2.5625,-25.1875,-44.5,-0.24,0.32,9.39,0.0,-0.002181661564992912,-0.001090830782496456,183.75,-1.375,-1.8125,0.0,0.04,-0.37,-0.24,1.59,9.790000000000001
1686659306.19617,2.0,-24.75,-43.6875,-0.24,0.35000000000000003,9.38,-0.002181661564992912,-0.001090830782496456,0.002181661564992912,183.75,-1.375,-1.8125,-0.01,0.01,-0.4,-0.24,0.31,9.790000000000001
1686659306.245664,3.0,-25.5,-43.375,-0.24,0.34,9.35,0.0,-0.001090830782496456,0.002181661564992912,183.75,-1.375,-1.8125,0.0,0.0,-0.39,-0.24,0.31,9.790000000000001
1686659306.296153,3.375,-25.5,-43.375,-0.24,0.32,9.370000000000001,0.001090830782496456,0.001090830782496456,-0.001090830782496456,183.75,-1.375,-1.8125,0.0,0.03,-0.4,-0.24,0.31,9.790000000000001
1686659306.346033,3.75,-25.1875,-43.375,-0.25,0.34,9.38,-0.001090830782496456,0.001090830782496456,0.001090830782496456,183.75,-1.375,-1.8125,-0.01,0.03,-0.4,-0.24,0.31,9.790000000000001
1686659306.396411,2.25,-24.75,-44.5625,-0.24,0.37,9.370000000000001,0.0,0.0,0.001090830782496456,183.75,-1.375,-1.8125,-0.01,0.03,-0.41000000000000003,-0.24,0.31,9.790000000000001
1686659306.446281,2.5625,-24.375,-44.5,-0.23,0.33,9.370000000000001,0.0,0.001090830782496456,0.001090830782496456,183.75,-1.375,-1.8125,0.0,0.01,-0.39,-0.24,0.31,9.790000000000001
1686659306.496696,2.25,-25.5,-44.5625,-0.25,0.33,9.36,0.001090830782496456,0.0,0.0,183.75,-1.375,-1.8125,-0.01,0.01,-0.41000000000000003,-0.24,0.31,9.790000000000001
1686659306.546495,3.0,-25.1875,-44.5,-0.24,0.34,9.39,-0.001090830782496456,0.001090830782496456,0.002181661564992912,183.75,-1.375,-1.8125,-0.01,0.03,-0.4,-0.24,0.31,9.790000000000001
1686659306.596391,3.0,-25.875,-43.75,-0.26,0.35000000000000003,9.4,0.001090830782496456,0.0,0.001090830782496456,183.75,-1.375,-1.8125,0.0,0.03,-0.41000000000000003,-0.24,0.31,9.790000000000001
1686659306.646553,2.5625,-24.75,-43.25,-0.24,0.34,9.38,0.002181661564992912,0.0,0.001090830782496456,183.75,-1.375,-1.8125,-0.03,0.01,-0.4,-0.24,0.31,9.790000000000001
1686659306.697488,3.375,-25.5,-44.5625,-0.23,0.34,9.39,0.001090830782496456,0.0,0.0,-1864.25,-1.375,-1.8125,-0.01,0.03,-0.4,-0.24,0.31,9.790000000000001
1686659306.748838,3.0,-25.1875,-43.375,-0.25,0.34,9.370000000000001,0.001090830782496456,-0.001090830782496456,0.0,183.75,-1.375,-1.8125,-0.01,0.04,-0.38,-0.24,0.31,9.790000000000001
1686659306.798989,3.375,-24.375,-42.875,-0.24,0.32,9.370000000000001,0.0,0.0,-0.002181661564992912,183.75,-1.375,-1.8125,-0.01,0.01,-0.41000000000000003,-0.24,0.31,9.790000000000001
1686659306.84901,2.25,-24.75,-44.1875,-0.25,0.33,9.39,0.003272492347489368,-0.002181661564992912,0.001090830782496456,183.75,-1.375,-1.8125,-0.01,0.03,-0.4,-0.24,0.31,9.790000000000001
1686659306.899102,2.25,-25.1875,-44.875,-0.25,0.35000000000000003,9.4,-0.001090830782496456,-0.001090830782496456,0.001090830782496456,183.75,-1.375,-1.8125,-0.02,0.01,-0.39,-0.24,0.31,9.790000000000001
1686659306.949262,2.5625,-25.875,-44.0625,-0.26,0.36,9.38,0.0,-0.004363323129985824,0.001090830782496456,183.75,-1.375,-1.8125,0.0,0.02,-0.41000000000000003,-0.24,0.31,9.790000000000001
1686659307.000985,3.0,-25.5,-45.375,-0.24,0.35000000000000003,9.4,0.0,0.0,0.0,183.75,-1.375,-1.8125,-0.02,0.01,-0.41000000000000003,-0.24,0.31,9.790000000000001
1686659307.050662,3.0,-24.75,-43.6875,-0.25,0.34,9.370000000000001,0.0,-0.001090830782496456,0.0,183.75,-1.375,-1.8125,-0.01,0.02,-0.39,-0.24,0.31,9.790000000000001
1686659307.100778,3.375,-25.5,-44.1875,-0.24,0.34,9.39,0.002181661564992912,0.0,0.0,183.75,-1.375,-1.8125,0.0,0.02,-0.4,-0.24,0.31,9.790000000000001
1686659307.150655,3.375,-24.75,-44.1875,-0.26,0.35000000000000003,9.39,0.001090830782496456,0.002181661564992912,-0.001090830782496456,183.75,-1.375,-1.8125,-0.01,0.04,-0.4,-0.24,0.31,9.790000000000001
1686659307.201424,2.25,-25.1875,-43.375,-0.27,0.33,9.370000000000001,0.002181661564992912,0.002181661564992912,0.001090830782496456,183.75,-1.375,-1.8125,-0.01,0.02,-0.41000000000000003,-0.24,0.31,9.790000000000001
1686659307.251119,3.0,-25.875,-44.1875,-0.24,0.33,9.38,-0.001090830782496456,-0.001090830782496456,0.0,183.75,-1.375,-1.8125,0.0,0.02,-0.4,-0.24,0.31,9.790000000000001
1686659307.302712,2.5625,-25.1875,-44.1875,-0.25,0.35000000000000003,9.370000000000001,0.0,0.001090830782496456,0.001090830782496456,183.75,-1.375,-1.8125,0.0,0.03,-0.4,-0.24,0.31,9.790000000000001
1686659307.35302,2.5625,-25.1875,-44.0625,-0.23,0.33,9.36,-0.001090830782496456,0.003272492347489368,-0.002181661564992912,183.75,-1.375,-1.8125,-0.01,0.06,-0.39,-0.24,0.31,9.790000000000001
1686659307.403192,3.0,-24.75,-43.375,-0.23,0.35000000000000003,9.38,0.0,-0.003272492347489368,0.0,183.75,-1.375,-1.8125,-0.01,0.04,-0.4,-0.24,0.31,9.790000000000001
1686659307.453211,3.0,-25.1875,-44.1875,-0.25,0.32,9.370000000000001,0.002181661564992912,0.0,0.001090830782496456,183.75,-1.375,-1.8125,-0.02,0.03,-0.41000000000000003,-0.24,0.31,9.790000000000001
1686659307.503766,3.375,-24.75,-43.6875,-0.25,0.35000000000000003,9.39,0.001090830782496456,0.002181661564992912,0.001090830782496456,183.75,-1.375,-1.8125,-0.02,0.01,-0.38,-0.24,0.31,9.790000000000001
1686659307.55453,1.5625,-24.75,-43.75,-0.25,0.34,9.370000000000001,0.0,0.001090830782496456,-0.001090830782496456,183.75,-1.375,-1.8125,-0.03,0.05,-0.4,-0.24,0.31,9.790000000000001
1686659307.604674,2.5625,-25.5,-42.875,-0.25,0.34,9.370000000000001,-0.001090830782496456,-0.001090830782496456,0.0,183.75,-1.375,-1.8125,-0.01,0.02,-0.4,-0.24,0.31,9.790000000000001
1686659307.655238,3.0,-25.1875,-44.1875,-0.24,0.35000000000000003,9.41,0.0,-0.003272492347489368,0.0,183.75,-1.375,-1.8125,0.0,0.03,-0.42,-0.24,0.31,9.790000000000001
1686659307.705825,4.0625,-25.5,-42.5625,-0.23,0.33,9.38,-0.001090830782496456,0.001090830782496456,0.002181661564992912,183.75,-1.375,-1.8125,0.0,0.03,-0.41000000000000003,-0.24,0.31,9.790000000000001
1686659307.756114,3.0,-25.875,-44.1875,-0.25,0.34,9.39,0.0,-0.002181661564992912,-0.001090830782496456,183.75,-1.375,-1.8125,-0.01,0.04,-0.43,-0.24,0.31,9.790000000000001
1686659307.807583,2.25,-25.5,-43.75,-0.27,0.33,9.39,0.0,-0.001090830782496456,0.001090830782496456,183.75,-1.375,-1.8125,0.0,0.03,-0.39,-0.24,0.31,9.790000000000001
1686659307.857848,2.5625,-24.75,-44.1875,-0.25,0.34,9.39,0.0,-0.002181661564992912,0.0,183.75,-1.375,-1.8125,0.01,0.04,-0.4,-0.24,0.31,9.790000000000001
1686659307.9081,3.0,-25.1875,-43.375,-0.24,0.32,9.38,0.0,0.0,0.0,183.75,-1.375,-1.8125,-0.01,0.01,-0.38,-0.24,0.31,9.790000000000001
1686659307.958163,2.5625,-25.1875,-43.375,-0.26,0.33,9.36,0.0,0.001090830782496456,0.002181661564992912,183.75,-1.375,-1.8125,0.0,0.04,-0.4,-0.24,0.31,9.790000000000001
1686659308.00829,3.375,-25.5,-43.6875,-0.25,0.36,9.38,0.0,0.001090830782496456,-0.001090830782496456,183.75,-1.375,-1.8125,-0.01,0.05,-0.41000000000000003,-0.24,0.31,9.790000000000001
1686659308.058322,4.0625,-25.875,-43.75,-0.25,0.35000000000000003,9.38,0.001090830782496456,-0.002181661564992912,0.001090830782496456,183.75,-1.375,-1.8125,0.0,0.02,-0.4,-0.24,0.31,9.790000000000001
1686659308.109664,2.5625,-25.1875,-43.25,-0.26,0.34,9.4,0.0,-0.003272492347489368,-0.001090830782496456,183.75,-1.375,-1.8125,0.0,0.03,-0.42,-0.24,0.31,9.790000000000001
1686659308.159757,3.375,-25.5,-44.1875,-0.23,0.33,9.38,-0.001090830782496456,0.002181661564992912,0.001090830782496456,183.75,-1.375,-1.8125,0.0,0.04,-0.4,-0.24,0.31,9.790000000000001
1686659308.210176,3.0,-25.5,-44.1875,-0.23,0.34,9.39,0.001090830782496456,-0.001090830782496456,0.001090830782496456,183.75,-1.375,-1.8125,0.0,0.02,-0.41000000000000003,-0.24,0.31,9.790000000000001
1686659308.260057,3.75,-24.75,-43.75,-0.26,0.33,9.38,0.0,0.0,0.001090830782496456,183.75,-1.375,-1.8125,-0.01,0.03,-0.4,-0.24,0.31,9.790000000000001
1686659308.310723,3.75,-24.375,-44.1875,-0.25,0.33,9.39,0.002181661564992912,-0.003272492347489368,0.001090830782496456,183.75,-1.375,-1.8125,0.0,0.02,-0.43,-0.24,0.31,9.790000000000001
1686659308.361564,3.0,-25.5,-43.25,-0.22,0.33,9.38,0.001090830782496456,0.001090830782496456,0.0,183.75,-1.375,-1.8125,-0.01,0.04,-0.4,-0.24,0.31,9.790000000000001
1686659308.412315,1.5625,-25.1875,-44.1875,-0.23,0.34,9.38,0.0,0.0,0.001090830782496456,183.75,-1.375,-1.8125,-0.02,0.01,-0.41000000000000003,-0.24,0.31,9.790000000000001
1686659308.462379,3.375,-25.1875,-44.875,-0.24,0.35000000000000003,9.39,-0.002181661564992912,0.001090830782496456,-0.002181661564992912,183.75,-1.375,-1.8125,-0.02,0.03,-0.42,-0.24,0.31,9.790000000000001
1686659308.512653,3.0,-25.875,-43.375,-0.27,0.34,9.38,0.002181661564992912,-0.002181661564992912,0.001090830782496456,183.75,-1.375,-1.8125,-0.01,0.02,-0.39,-0.24,0.31,9.790000000000001
1686659308.562517,2.5625,-24.75,-43.6875,-0.25,0.33,9.39,0.0,0.001090830782496456,0.001090830782496456,183.75,-1.375,-1.8125,-0.01,0.04,-0.38,-0.24,0.31,9.790000000000001
1686659308.613295,2.5625,-24.375,-44.1875,-0.25,0.33,9.39,-0.001090830782496456,0.004363323129985824,-0.002181661564992912,183.75,-1.375,-1.8125,-0.01,0.04,-0.42,-0.24,0.31,9.790000000000001
1686659308.663551,2.5625,-24.375,-42.875,-0.23,0.35000000000000003,9.370000000000001,0.0,0.0,0.0,183.75,-1.375,-1.8125,-0.01,0.02,-0.39,-0.24,0.31,9.790000000000001
1686659308.713037,3.75,-24.75,-44.0625,-0.23,0.34,9.39,0.001090830782496456,0.0,0.002181661564992912,183.75,-1.375,-1.8125,-0.01,0.03,-0.4,-0.24,0.31,9.790000000000001
1686659308.763047,2.0,-25.875,-43.375,-0.24,0.34,9.39,0.0,-0.001090830782496456,-0.001090830782496456,183.75,-1.375,-1.8125,0.0,0.03,-0.39,-0.24,0.31,9.790000000000001
1686659308.813969,1.5625,-25.5,-44.5,-0.23,0.33,9.39,-0.001090830782496456,0.001090830782496456,-0.001090830782496456,183.75,-1.375,-1.8125,0.0,0.02,-0.41000000000000003,-0.24,0.31,9.790000000000001
1686659308.863462,3.0,-25.1875,-43.6875,-0.25,0.35000000000000003,9.39,-0.001090830782496456,0.001090830782496456,0.0,183.75,-1.375,-1.8125,-0.02,0.03,-0.41000000000000003,-0.24,0.31,9.790000000000001
1686659308.915691,2.5625,-25.1875,-44.5,-0.24,0.34,9.39,0.0,0.0,-0.002181661564992912,183.75,-1.375,-1.8125,-0.01,0.03,-0.4,-0.24,0.31,9.790000000000001
1686659308.965729,2.25,-25.1875,-44.875,-0.23,0.34,9.42,0.001090830782496456,0.0,0.002181661564992912,183.75,-1.375,-1.8125,-0.01,0.02,-0.39,-0.24,0.31,9.790000000000001
1686659309.015994,3.375,-24.75,-44.5,-0.26,0.33,9.39,0.0,0.0,-0.001090830782496456,183.75,-1.375,-1.8125,-0.01,0.02,-0.41000000000000003,-0.24,0.31,9.790000000000001
1686659309.065975,2.5625,-25.5,-43.6875,-0.23,0.34,9.4,0.0,0.001090830782496456,0.0,183.75,-1.375,-1.8125,-0.01,0.04,-0.41000000000000003,-0.24,0.31,9.790000000000001
1686659309.116113,3.0,-25.1875,-42.5,-0.24,0.33,9.39,0.0,0.001090830782496456,0.001090830782496456,183.75,-1.375,-1.8125,-0.01,0.04,-0.41000000000000003,-0.24,0.31,9.790000000000001
1686659309.167057,3.0,-24.375,-43.25,-0.23,0.36,9.39,-0.001090830782496456,-0.001090830782496456,0.002181661564992912,183.75,-1.375,-1.8125,-0.01,0.02,-0.39,-0.24,0.31,9.790000000000001
1686659309.2177,2.25,-25.875,-43.6875,-0.25,0.34,9.38,0.001090830782496456,0.002181661564992912,-0.001090830782496456,183.75,-1.375,-1.8125,-0.01,0.03,-0.4,-0.24,0.31,9.790000000000001
1686659309.26784,2.25,-25.1875,-45.0,-0.23,0.34,9.35,-0.001090830782496456,0.002181661564992912,0.001090830782496456,183.75,-1.375,-1.8125,-0.02,0.03,-0.42,-0.24,0.31,9.790000000000001
1686659309.318447,2.25,-25.5,-44.5,-0.24,0.36,9.38,0.002181661564992912,0.0,0.001090830782496456,183.75,-1.375,-1.8125,-0.03,0.04,-0.42,-0.24,0.31,9.790000000000001
1686659309.368631,2.25,-24.75,-43.75,-0.25,0.33,9.370000000000001,0.0,-0.003272492347489368,0.0,183.75,-1.375,-1.8125,-0.01,0.05,-0.42,-0.24,0.31,9.790000000000001
1686659309.419949,2.0,-25.1875,-44.1875,-0.25,0.33,9.4,0.001090830782496456,-0.002181661564992912,0.0,183.75,-1.375,-1.8125,0.01,0.01,-0.4,-0.24,0.31,9.790000000000001
1686659309.470467,3.75,-24.75,-43.6875,-0.25,0.34,9.39,-0.001090830782496456,0.0,0.0,183.75,-1.375,-1.8125,0.0,0.01,-0.41000000000000003,-0.24,0.31,9.790000000000001
1686659309.520783,3.0,-25.5,-44.1875,-0.24,0.34,9.36,-0.001090830782496456,-0.001090830782496456,0.001090830782496456,183.75,-1.375,-1.8125,-0.01,0.05,-0.43,-0.24,0.31,-317.89
1686659309.571263,2.5625,-25.5,-43.6875,-0.24,0.33,9.38,0.0,0.0,-0.001090830782496456,183.75,-1.375,-1.8125,-0.01,0.03,-0.39,-0.24,0.31,9.790000000000001
1686659309.621466,2.5625,-25.1875,-44.1875,-0.24,0.33,9.38,0.0,0.002181661564992912,0.0,183.75,-1.375,-1.8125,-0.01,0.01,-0.41000000000000003,-0.24,0.31,9.790000000000001
1686659309.671593,1.5625,-25.1875,-43.75,-0.24,0.33,9.39,-0.001090830782496456,0.0,-0.001090830782496456,183.75,-1.375,-1.8125,-0.01,0.0,-0.4,-0.24,0.31,9.790000000000001
1686659309.723649,3.0,-25.875,-44.5,-0.26,0.34,9.38,0.001090830782496456,0.0,0.0,183.75,-1.375,-1.8125,-0.01,0.03,-0.42,-0.24,0.31,9.790000000000001
1686659309.773603,3.375,-25.5,-42.875,-0.24,0.35000000000000003,9.39,0.0,0.0,0.0,183.75,-1.375,-1.8125,0.0,0.01,-0.43,-0.24,0.31,9.790000000000001
1686659309.824037,2.5625,-25.5,-44.5,-0.25,0.33,9.39,0.001090830782496456,-0.001090830782496456,0.001090830782496456,183.75,-1.375,-1.8125,0.0,0.02,-0.42,-0.24,0.31,9.790000000000001
1686659309.873653,3.0,-26.1875,-44.875,-0.24,0.33,9.4,-0.001090830782496456,0.0,0.001090830782496456,183.75,-1.375,-1.8125,0.0,0.04,-0.39,-0.24,0.31,9.790000000000001
1686659309.924186,3.375,-25.1875,-43.6875,-0.24,0.35000000000000003,9.38,0.0,-0.001090830782496456,0.0,183.75,-1.375,-1.8125,-0.01,0.01,-0.38,-0.24,0.31,9.790000000000001
1686659309.975611,2.5625,-25.5,-44.75,-0.24,0.33,9.39,0.001090830782496456,0.001090830782496456,-0.001090830782496456,183.75,-1.375,-1.8125,0.0,0.03,-0.42,-0.24,0.31,9.790000000000001
1686659310.025334,3.0,-25.5,-44.5,-0.25,0.34,9.38,0.0,-0.001090830782496456,-0.001090830782496456,183.75,-1.375,-1.8125,0.0,0.02,-0.39,-0.24,0.31,9.790000000000001
1686659310.075244,3.0,-25.1875,-44.75,-0.26,0.33,9.39,-0.001090830782496456,-0.001090830782496456,0.001090830782496456,183.75,-1.375,-1.8125,-0.01,0.04,-0.38,-0.24,0.31,9.790000000000001
1686659310.125369,3.0,-25.1875,-44.1875,-0.25,0.37,9.39,0.0,-0.002181661564992912,-0.001090830782496456,183.75,-1.375,-1.8125,-0.01,0.01,-0.41000000000000003,-0.24,0.31,9.790000000000001
1686659310.174781,2.25,-25.5,-44.1875,-0.26,0.34,9.38,0.001090830782496456,0.0,0.0,183.75,-1.375,-1.8125,0.0,0.04,-0.39,-0.24,0.31,9.790000000000001
1686659310.225723,2.5625,-24.75,-43.6875,-0.24,0.33,9.39,-0.001090830782496456,0.004363323129985824,0.002181661564992912,183.75,-1.375,-1.8125,-0.01,0.01,-0.41000000000000003,-0.24,0.31,9.790000000000001
1686659310.275753,3.375,-25.1875,-45.25,-0.27,0.33,9.39,0.0,0.002181661564992912,0.0,183.75,-1.375,-1.8125,-0.02,0.03,-0.4,-0.24,0.31,9.790000000000001
1686659310.325823,2.0,-24.375,-43.375,-0.21,0.33,9.370000000000001,0.0,0.001090830782496456,0.0,183.75,-1.375,-1.8125,0.0,0.03,-0.42,-0.24,0.31,9.790000000000001
1686659310.375187,2.5625,-24.375,-44.5,-0.22,0.36,9.39,-0.001090830782496456,0.001090830782496456,0.0,183.75,-1.375,-1.8125,0.0,0.04,-0.39,-0.24,0.31,9.790000000000001
1686659310.425332,2.5625,-25.875,-44.1875,-0.25,0.33,9.4,0.0,0.0,0.001090830782496456,183.75,-1.375,-1.8125,-0.01,0.01,-0.43,-0.24,0.31,9.790000000000001
1686659310.475512,2.5625,-25.5,-43.6875,-0.24,0.33,9.4,-0.002181661564992912,0.002181661564992912,-0.001090830782496456,183.75,-1.375,-1.8125,0.0,0.04,-0.4,-0.24,0.31,9.790000000000001
1686659310.527183,2.0,-24.375,-44.0625,-0.24,0.32,9.38,0.0,0.001090830782496456,0.0,183.75,-1.375,-1.8125,0.0,0.0,-0.39,-0.24,0.31,9.790000000000001
1686659310.576677,4.5,-25.5,-43.6875,-0.24,0.33,9.38,0.002181661564992912,0.0,0.0,183.75,-1.375,-1.8125,-0.01,0.02,-0.4,-0.24,0.31,9.790000000000001
1686659310.626617,3.0,-24.75,-44.0625,-0.25,0.34,9.38,0.001090830782496456,-0.001090830782496456,0.001090830782496456,183.75,-1.375,-1.8125,-0.01,0.02,-0.4,-0.24,0.31,9.790000000000001
1686659310.676759,2.5625,-25.1875,-43.6875,-0.24,0.35000000000000003,9.4,0.0,0.0,-0.001090830782496456,183.75,-1.375,-1.8125,0.0,0.02,-0.39,-0.24,0.31,9.790000000000001
1686659310.726936,2.5625,-25.5,-44.5,-0.24,0.33,9.39,0.001090830782496456,0.001090830782496456,0.002181661564992912,183.75,-1.375,-1.8125,0.0,0.03,-0.41000000000000003,-0.24,0.31,9.790000000000001
1686659310.778201,2.0,-24.75,-42.875,-0.26,0.33,9.36,-0.001090830782496456,-0.002181661564992912,0.001090830782496456,183.75,-1.375,-1.8125,0.0,0.04,-0.43,-0.24,0.31,9.790000000000001
1686659310.8281,2.5625,-24.375,-44.5,-0.24,0.34,9.39,-0.001090830782496456,0.0,0.001090830782496456,183.75,-1.375,-1.8125,0.0,0.02,-0.4,-0.24,0.31,9.790000000000001
1686659310.878403,4.0625,-25.1875,-45.1875,-0.26,0.35000000000000003,9.41,0.0,-0.001090830782496456,0.001090830782496456,183.75,-1.375,-1.8125,0.0,0.03,-0.43,-0.24,0.31,9.790000000000001
1686659310.928441,3.75,-25.1875,-44.0625,-0.25,0.34,9.38,0.0,0.001090830782496456,-0.001090830782496456,183.75,-1.375,-1.8125,-0.02,0.02,-0.42,-0.24,0.31,9.790000000000001
1686659310.978424,3.75,-25.1875,-44.5625,-0.24,0.33,9.38,-0.001090830782496456,0.001090830782496456,-0.002181661564992912,183.75,-1.375,-1.8125,0.0,0.02,-0.43,-0.24,0.31,9.790000000000001
1686659311.029261,2.25,-24.375,-43.6875,-0.25,0.35000000000000003,9.38,0.001090830782496456,0.003272492347489368,-0.001090830782496456,183.75,-1.375,-1.8125,-0.01,0.02,-0.42,-0.24,0.31,9.790000000000001
1686659311.07888,3.375,-24.375,-43.25,-0.25,0.33,9.38,0.0,0.003272492347489368,0.001090830782496456,183.75,-1.375,-1.8125,0.0,0.02,-0.4,-0.24,0.31,9.790000000000001
1686659311.12872,2.25,-25.5,-43.6875,-0.24,0.32,9.39,0.001090830782496456,0.002181661564992912,0.0,183.75,-1.375,-1.8125,-0.01,0.04,-0.4,-0.24,0.31,9.790000000000001
1686659311.178006,4.0625,-25.5,-44.1875,-0.24,0.34,9.39,0.0,-0.001090830782496456,-0.002181661564992912,183.75,-1.375,-1.8125,0.0,0.04,-0.4,-0.24,0.31,9.790000000000001
1686659311.228312,2.25,-25.875,-43.25,-0.24,0.35000000000000003,9.39,0.0,0.001090830782496456,0.001090830782496456,183.75,-1.375,-1.8125,-0.01,0.02,-0.42,-0.24,0.31,9.790000000000001
1686659311.278419,3.375,-24.375,-44.5,-0.25,0.34,9.39,0.001090830782496456,-0.001090830782496456,0.0,183.75,-1.375,-1.8125,0.0,0.02,-0.46,-0.24,0.31,9.790000000000001
1686659311.329412,2.0,-25.875,-44.5,-0.25,0.34,9.4,-0.001090830782496456,0.0,-0.001090830782496456,183.75,-1.375,-1.8125,-0.02,0.02,-0.41000000000000003,-0.24,0.31,9.790000000000001
1686659311.37956,2.0,-25.5,-43.375,-0.24,0.32,9.39,0.0,0.0,0.0,183.75,-1.375,-1.8125,0.0,0.04,-0.42,-0.24,0.31,9.790000000000001
1686659311.429581,3.0,-24.75,-43.25,-0.25,0.34,9.39,-0.002181661564992912,-0.002181661564992912,-0.001090830782496456,183.75,-1.375,-1.8125,-0.01,0.01,-0.41000000000000003,-0.24,0.31,9.790000000000001
1686659311.479775,2.0,-25.1875,-44.0625,-0.23,0.34,9.39,0.0,0.0,-0.002181661564992912,183.75,-1.375,-1.8125,-0.02,0.02,-0.42,-0.24,0.31,9.790000000000001
1686659311.529735,3.375,-26.1875,-44.875,-0.25,0.36,9.38,-0.001090830782496456,-0.001090830782496456,0.002181661564992912,183.75,-1.375,-1.8125,-0.01,0.02,-0.45,-0.24,0.31,9.790000000000001
1686659311.581492,2.5625,-25.875,-43.25,-0.24,0.33,9.370000000000001,0.0,0.001090830782496456,0.0,183.75,-1.375,-1.8125,0.0,0.0,-0.42,-0.24,0.31,9.790000000000001
1686659311.631486,3.0,-25.1875,-42.875,-0.25,0.33,9.39,0.0,0.0,0.0,183.75,-1.375,-1.8125,0.0,0.03,-0.4,-0.24,0.31,9.790000000000001
1686659311.681218,3.75,-25.5,-44.5,-0.24,0.35000000000000003,9.39,0.0,-0.001090830782496456,0.0,183.75,-1.375,-1.8125,0.0,0.03,-0.41000000000000003,-0.24,0.31,9.790000000000001
1686659311.731774,2.25,-25.1875,-44.5,-0.24,0.34,9.38,0.0,0.002181661564992912,0.0,183.75,-1.375,-1.8125,0.0,0.03,-0.43,-0.24,0.31,9.790000000000001
1686659311.781849,2.5625,-24.375,-44.875,-0.25,0.34,9.370000000000001,0.0,0.0,0.001090830782496456,183.75,-1.375,-1.8125,0.0,0.03,-0.42,-0.24,0.31,9.790000000000001
1686659311.832647,2.5625,-24.75,-44.1875,-0.24,0.35000000000000003,9.38,0.001090830782496456,-0.002181661564992912,0.0,183.75,-1.375,-1.8125,-0.01,0.02,-0.43,-0.24,0.31,9.790000000000001
1686659311.881852,3.75,-24.75,-43.6875,-0.25,0.33,9.39,-0.001090830782496456,0.001090830782496456,0.002181661564992912,183.75,-1.375,-1.8125,-0.02,0.04,-0.39,-0.24,0.31,9.790000000000001
1686659311.932192,2.0,-25.1875,-44.1875,-0.24,0.35000000000000003,9.38,0.0,0.0,0.001090830782496456,183.75,-1.375,-1.8125,0.0,0.01,-0.44,-0.24,0.31,9.790000000000001
1686659311.982408,3.375,-25.5,-44.1875,-0.24,0.32,9.39,0.002181661564992912,0.0,-0.001090830782496456,183.75,-1.375,-1.8125,-0.01,0.05,-0.4,-0.24,0.31,9.790000000000001
1686659312.032281,2.5625,-25.5,-43.25,-0.24,0.34,9.370000000000001,-0.001090830782496456,0.001090830782496456,0.0,183.75,-1.375,-1.8125,0.0,0.02,-0.42,-0.24,0.31,9.790000000000001
1686659312.082676,2.25,-26.1875,-43.6875,-0.24,0.35000000000000003,9.38,0.002181661564992912,0.0,0.0,183.75,-1.375,-1.8125,0.01,0.03,-0.42,-0.24,0.31,9.790000000000001
1686659312.133445,3.0,-25.1875,-43.25,-0.25,0.35000000000000003,9.38,-0.002181661564992912,0.001090830782496456,0.0,183.75,-1.375,-1.8125,-0.01,0.0,-0.4,-0.24,0.31,9.790000000000001
1686659312.182613,3.75,-25.1875,-44.0625,-0.25,0.34,9.38,0.0,0.0,0.0,183.75,-1.375,-1.8125,0.0,0.02,-0.42,-0.24,0.31,9.790000000000001
1686659312.232955,3.0,-25.5,-43.75,-0.25,0.33,9.38,0.0,-0.002181661564992912,-0.001090830782496456,183.75,-1.375,-1.8125,-0.02,0.02,-0.43,-0.24,0.31,9.790000000000001
1686659312.282862,3.75,-25.1875,-44.5,-0.24,0.33,9.39,-0.001090830782496456,0.0,0.0,183.75,-1.375,-1.8125,0.0,0.01,-0.42,-0.24,0.31,9.790000000000001
1686659312.33318,2.5625,-25.5,-45.0,-0.26,0.32,9.39,0.002181661564992912,-0.002181661564992912,0.0,183.75,-1.375,-1.8125,0.0,0.04,-0.4,-0.24,0.31,9.790000000000001
1686659312.38445,3.0,-24.75,-44.0625,-0.26,0.32,9.39,0.0,-0.003272492347489368,0.0,183.75,-1.375,-1.8125,0.0,0.01,-0.42,-0.24,0.31,9.790000000000001
1686659312.434194,1.1875,-24.75,-35.6875,-0.24,0.33,9.39,0.001090830782496456,0.001090830782496456,0.001090830782496456,183.75,-1.375,-1.8125,0.0,0.02,-0.42,-0.24,0.31,9.790000000000001
1686659312.483547,2.5625,-24.75,-44.375,-0.25,0.33,9.39,-0.001090830782496456,0.001090830782496456,-0.002181661564992912,183.75,-1.375,-1.8125,0.0,0.02,-0.42,-0.24,0.31,9.790000000000001
1686659312.533218,3.0,-24.375,-42.875,-0.24,0.32,9.39,0.0,0.001090830782496456,0.0,183.75,-1.375,-1.8125,-0.01,0.01,-0.43,-0.24,0.31,9.790000000000001
1686659312.582394,4.0625,-25.1875,-43.25,-0.24,0.34,9.36,-0.001090830782496456,0.001090830782496456,0.001090830782496456,183.75,-1.375,-1.8125,0.0,0.04,-0.44,-0.24,0.31,9.790000000000001
1686659312.63325,3.0,-25.5,-44.0,-0.23,0.35000000000000003,9.4,0.0,-0.001090830782496456,0.0,183.75,-1.375,-1.8125,0.0,0.02,-0.43,-0.24,0.31,9.790000000000001
1686659312.682627,2.25,-25.1875,-44.375,-0.25,0.35000000000000003,9.38,0.0,-0.001090830782496456,-0.001090830782496456,183.75,-1.375,-1.8125,-0.01,0.01,-0.43,-0.24,0.31,9.790000000000001
1686659312.733023,2.25,-24.75,-44.5,-0.25,0.34,9.38,0.0,-0.001090830782496456,0.0,183.75,-1.375,-1.8125,-0.01,0.02,-0.42,-0.24,0.31,9.790000000000001
1686659312.782842,2.5625,-24.375,-43.6875,-0.26,0.34,9.39,0.0,0.0,0.0,183.75,-1.375,-1.8125,0.0,0.02,-0.41000000000000003,-0.24,0.31,9.790000000000001
1686659312.833101,3.0,-25.875,-43.6875,-0.25,0.33,9.4,-0.001090830782496456,0.0,0.0,183.75,-1.375,-1.8125,-0.01,0.01,-0.41000000000000003,-0.24,0.31,9.790000000000001
1686659312.883142,3.375,-24.375,-43.25,-0.24,0.34,9.38,0.001090830782496456,-0.001090830782496456,0.0,183.75,-1.375,-1.8125,-0.01,0.04,-0.42,-0.24,0.31,9.790000000000001
1686659312.934516,3.0,-24.75,-43.1875,-0.24,0.33,9.38,0.0,-0.004363323129985824,0.0,183.75,-1.375,-1.8125,-0.01,0.02,-0.41000000000000003,-0.24,0.31,9.790000000000001
1686659312.984672,3.375,-26.1875,-44.0625,-0.24,0.34,9.4,0.0,-0.001090830782496456,0.0,183.75,-1.375,-1.8125,0.0,0.02,-0.42,-0.24,0.31,9.790000000000001
1686659313.034168,2.0,-24.375,-44.0625,-0.26,0.34,9.38,0.0,-0.004363323129985824,-0.001090830782496456,183.75,-1.375,-1.8125,0.0,0.0,-0.4,-0.24,0.31,9.790000000000001
1686659313.083019,3.375,-25.5,-43.25,-0.24,0.33,9.39,-0.001090830782496456,-0.003272492347489368,0.002181661564992912,183.75,-1.375,-1.8125,0.0,0.04,-0.41000000000000003,-0.24,0.31,9.790000000000001
1686659313.133073,2.5625,-25.5,-44.5,-0.24,0.33,9.39,0.001090830782496456,-0.001090830782496456,0.0,183.75,-1.375,-1.8125,0.0,0.03,-0.42,-0.24,0.31,9.790000000000001
1686659313.184638,2.5625,-25.5,-45.1875,-0.26,0.33,9.370000000000001,0.001090830782496456,0.0,-0.001090830782496456,183.75,-1.375,-1.8125,0.0,0.02,-0.4,-0.24,0.31,9.790000000000001
1686659313.235453,3.0,-25.1875,-42.375,-0.25,0.35000000000000003,9.38,0.0,0.001090830782496456,-0.003272492347489368,183.75,-1.375,-1.8125,0.0,0.03,-0.41000000000000003,-0.24,1.59,9.790000000000001
1686659313.285143,3.375,-24.75,-44.5,-0.25,0.34,9.38,0.0,0.0,-0.001090830782496456,183.75,-1.375,-1.8125,0.0,0.02,-0.42,-0.24,0.31,9.790000000000001
1686659313.335638,2.25,-24.75,-44.0625,-0.26,0.33,9.370000000000001,-0.001090830782496456,-0.001090830782496456,0.0,183.75,-1.375,-1.8125,-0.01,0.02,-0.43,-0.24,0.31,9.790000000000001
1686659313.385389,3.0,-25.5,-44.0,-0.23,0.35000000000000003,9.4,0.001090830782496456,-0.001090830782496456,0.0,183.75,-1.375,-1.8125,0.0,0.04,-0.42,-0.24,0.31,9.790000000000001
1686659313.436361,2.5625,-25.1875,-44.375,-0.23,0.34,9.370000000000001,0.0,-0.001090830782496456,0.0,183.75,-1.375,-1.8125,-0.01,0.03,-0.43,-0.24,0.31,9.790000000000001
1686659313.485872,2.5625,-25.1875,-44.75,-0.26,0.33,9.36,-0.001090830782496456,0.0,-0.001090830782496456,183.75,-1.375,-1.8125,-0.01,0.02,-0.43,-0.24,0.31,9.790000000000001
1686659313.536025,4.0625,-25.1875,-44.5,-0.25,0.32,9.39,-0.001090830782496456,-0.001090830782496456,-0.002181661564992912,183.75,-1.375,-1.8125,-0.01,0.03,-0.46,-0.24,0.31,9.790000000000001
1686659313.586089,2.25,-24.375,-43.5625,-0.24,0.34,9.4,0.002181661564992912,-0.002181661564992912,-0.002181661564992912,183.75,-1.375,-1.8125,-0.02,0.04,-0.42,-0.24,0.31,9.790000000000001
1686659313.636234,3.375,-25.875,-44.0,-0.24,0.34,9.4,0.001090830782496456,0.0,0.001090830782496456,183.75,-1.375,-1.8125,-0.01,0.01,-0.4,-0.24,0.31,9.790000000000001
1686659313.6864,2.25,-25.5,-44.0625,-0.26,0.33,9.39,0.0,-0.002181661564992912,0.001090830782496456,183.75,-1.375,-1.8125,0.0,0.04,-0.41000000000000003,-0.24,0.31,9.790000000000001
1686659313.73728,3.375,-25.5,-42.5,-0.24,0.33,9.39,0.0,0.001090830782496456,0.0,183.75,-1.375,-1.8125,-0.01,0.01,-0.42,-0.24,0.31,9.790000000000001
1686659313.786639,3.0,-25.1875,-44.0625,-0.26,0.37,9.39,-0.001090830782496456,0.002181661564992912,-0.002181661564992912,183.75,-1.375,-1.8125,-0.01,0.02,-0.44,-0.24,0.31,9.790000000000001
1686659313.836739,2.5625,-25.1875,-43.6875,-0.24,1.61,9.41,0.002181661564992912,0.001090830782496456,-0.001090830782496456,183.75,-1.375,-1.8125,0.0,0.02,-0.43,-0.24,0.31,9.790000000000001
1686659313.88684,3.375,-25.1875,-42.75,-0.24,0.33,9.370000000000001,-0.002181661564992912,-0.001090830782496456,0.0,183.75,-1.375,-1.8125,-0.01,0.03,-0.42,-0.24,0.31,9.790000000000001
1686659313.937185,2.25,-25.1875,-44.0,-0.24,0.34,9.4,0.0,0.0,-0.001090830782496456,183.75,-1.375,-1.8125,-0.01,0.01,-0.44,-0.24,0.31,9.790000000000001
1686659313.988152,3.375,-24.75,-44.375,-0.26,0.34,9.4,-0.001090830782496456,0.0,0.0,183.75,-1.375,-1.8125,-0.01,0.02,-0.42,-0.24,0.31,9.790000000000001
1686659314.038243,3.0,-25.5,-43.6875,-0.25,0.34,9.4,-0.001090830782496456,0.0,-0.001090830782496456,183.75,-1.375,-1.8125,0.0,0.02,-0.4,-0.24,0.31,9.790000000000001
1686659314.087592,3.375,-25.1875,-44.5,-0.24,0.34,9.38,-0.001090830782496456,0.001090830782496456,0.0,183.75,-1.375,-1.8125,-0.01,0.03,-0.4,-0.24,0.31,9.790000000000001
1686659314.137478,3.75,-25.1875,-44.375,-0.24,0.33,9.4,-0.002181661564992912,0.0,0.0,183.75,-1.375,-1.8125,0.0,0.04,-0.42,-0.24,0.31,9.790000000000001
1686659314.187856,3.375,-25.5,-43.1875,-0.25,0.33,9.36,0.002181661564992912,0.001090830782496456,-0.001090830782496456,183.75,-1.375,-1.8125,-0.01,0.04,-0.42,-0.24,0.31,9.790000000000001
1686659314.238416,3.0,-25.1875,-42.75,-0.24,0.35000000000000003,9.38,0.001090830782496456,-0.001090830782496456,0.001090830782496456,183.75,-1.375,-1.8125,-0.03,0.02,-0.42,-0.24,0.31,9.790000000000001
1686659314.287587,2.5625,-25.5,-43.5625,-0.26,0.35000000000000003,9.38,-0.001090830782496456,0.001090830782496456,0.001090830782496456,183.75,-1.375,-1.8125,-0.01,0.03,-0.44,-0.24,0.31,9.790000000000001
1686659314.337857,3.375,-25.875,-44.0625,-0.24,0.33,9.36,-0.001090830782496456,-0.003272492347489368,0.001090830782496456,183.75,-1.375,-1.8125,0.0,0.01,-0.42,-0.24,1.59,9.790000000000001
1686659314.388054,3.75,-24.75,-43.5625,-0.25,0.33,9.39,0.001090830782496456,0.001090830782496456,0.0,183.75,-1.375,-1.8125,0.0,0.0,-0.43,-0.24,0.31,9.790000000000001
1686659314.438417,2.0,-25.5,-44.75,-0.24,0.34,9.370000000000001,0.0,0.002181661564992912,-0.001090830782496456,183.75,-1.375,-1.8125,0.0,0.02,-0.41000000000000003,-0.24,0.31,9.790000000000001
1686659314.488419,1.5625,-25.875,-42.6875,-0.24,0.35000000000000003,9.370000000000001,0.002181661564992912,-0.001090830782496456,0.003272492347489368,183.75,-1.375,-1.8125,0.0,0.04,-0.41000000000000003,-0.24,0.31,9.790000000000001
1686659314.539962,3.75,-25.875,-44.6875,-0.25,0.34,9.370000000000001,-0.001090830782496456,-0.001090830782496456,-0.001090830782496456,183.75,-1.375,-1.8125,0.0,0.03,-0.41000000000000003,-0.24,0.31,9.790000000000001
1686659314.58967,2.25,-26.1875,-44.375,-0.26,0.34,9.39,0.0,-0.002181661564992912,-0.002181661564992912,183.75,-1.375,-1.8125,0.0,0.03,-0.42,-0.24,0.31,9.790000000000001
1686659314.638413,3.0,-25.1875,-44.6875,-0.24,0.33,9.39,0.0,0.001090830782496456,0.0,183.75,-1.375,-1.8125,-0.01,0.01,-0.42,-0.24,0.31,9.790000000000001
1686659314.686614,2.25,-25.1875,-44.75,-0.25,0.34,9.39,0.0,0.001090830782496456,0.001090830782496456,183.75,-1.375,-1.8125,-0.01,0.03,-0.42,-0.24,0.31,9.790000000000001
1686659314.736773,3.75,-25.875,-44.0,-0.23,0.33,9.39,0.002181661564992912,-0.002181661564992912,0.001090830782496456,183.75,-1.375,-1.8125,-0.01,0.04,-0.43,-0.24,0.31,9.790000000000001
1686659314.787276,2.5625,-25.875,-43.1875,-0.24,0.35000000000000003,9.39,0.0,-0.001090830782496456,0.001090830782496456,183.75,-1.375,-1.8125,-0.01,0.02,-0.38,-0.24,0.31,9.790000000000001
1686659314.837126,2.25,-24.75,-43.5625,-0.23,0.33,9.36,0.0,0.0,-0.001090830782496456,183.75,-1.375,-1.8125,0.0,0.04,-0.39,-0.24,0.31,9.790000000000001
1686659314.886378,2.25,-25.5,-44.0,-0.24,0.35000000000000003,9.39,0.001090830782496456,0.001090830782496456,-0.001090830782496456,183.75,-1.375,-1.8125,-0.01,0.02,-0.41000000000000003,-0.24,0.31,9.790000000000001
1686659314.936571,3.0,-25.1875,-43.5625,-0.24,0.35000000000000003,9.36,0.0,0.001090830782496456,0.001090830782496456,183.75,-1.375,-1.8125,0.0,0.04,-0.42,-0.24,0.31,9.790000000000001
1686659314.98669,4.0625,-25.1875,-43.5625,-0.24,0.34,9.4,0.0,0.0,0.0,183.75,-1.375,-1.8125,-0.01,0.03,-0.41000000000000003,-0.24,0.31,9.790000000000001
1686659315.037869,3.375,-24.75,-44.0,-0.25,0.33,9.370000000000001,-0.001090830782496456,-0.001090830782496456,-0.003272492347489368,183.75,-1.375,-1.8125,-0.01,0.01,-0.38,-0.24,0.31,9.790000000000001
1686659315.087632,3.375,-25.5,-43.5,-0.25,0.34,9.38,-0.002181661564992912,-0.002181661564992912,0.0,183.75,-1.375,-1.8125,-0.01,0.02,-0.42,-0.24,0.31,9.790000000000001
1686659315.137854,2.5625,-25.875,-43.5625,-0.25,0.33,9.370000000000001,0.001090830782496456,-0.003272492347489368,0.0,183.75,-1.375,-1.8125,0.0,0.04,-0.41000000000000003,-0.24,0.31,9.790000000000001
1686659315.18808,2.5625,-25.5,-44.6875,-0.25,0.33,9.370000000000001,0.001090830782496456,0.0,-0.001090830782496456,183.75,-1.375,-1.8125,0.0,0.02,-0.38,-0.24,0.31,9.790000000000001
1686659315.238164,3.0,-24.75,-44.375,-0.23,0.32,9.36,-0.001090830782496456,0.001090830782496456,-0.001090830782496456,183.75,-1.375,-1.8125,-0.01,0.01,-0.39,-0.24,0.31,9.790000000000001
1686659315.2883,2.25,-25.1875,-44.0,-0.23,0.35000000000000003,9.39,0.001090830782496456,-0.001090830782496456,0.001090830782496456,183.75,-1.375,-1.8125,0.0,0.02,-0.4,-0.24,0.31,9.790000000000001
1686659315.339521,3.75,-25.1875,-44.0,-0.26,0.33,9.370000000000001,-0.001090830782496456,0.0,-0.001090830782496456,183.75,-1.375,-1.8125,0.0,0.03,-0.42,-0.24,0.31,9.790000000000001
1686659315.389547,2.5625,-24.75,-44.75,-0.25,0.3,9.39,0.0,0.001090830782496456,0.001090830782496456,183.75,-1.375,-1.8125,-0.01,0.03,-0.41000000000000003,-0.24,0.31,9.790000000000001
1686659315.439723,2.5625,-26.1875,-44.0,-0.25,0.33,9.39,0.0,-0.001090830782496456,0.001090830782496456,183.75,-1.375,-1.8125,-0.02,0.03,-0.43,-0.24,0.31,9.790000000000001
1686659315.489855,2.5625,-24.375,-43.1875,-0.25,0.33,9.39,0.001090830782496456,0.001090830782496456,-0.001090830782496456,183.75,-1.375,-1.8125,-0.01,0.02,-0.41000000000000003,-0.24,0.31,9.790000000000001
1686659315.540072,3.0,-25.875,-44.0,-0.24,0.36,9.39,-0.001090830782496456,0.002181661564992912,0.0,183.75,-1.375,-1.8125,0.0,0.04,-0.41000000000000003,-0.24,0.31,9.790000000000001
1686659315.608415,3.0,-25.875,-43.5625,-0.24,0.36,9.36,0.001090830782496456,-0.001090830782496456,0.0,183.75,-1.375,-1.8125,-0.01,0.03,-0.41000000000000003,-0.24,0.31,9.790000000000001
1686659315.65823,2.5625,-26.1875,-44.6875,-0.27,0.34,9.39,0.0,0.0,0.0,183.75,-1.375,-1.8125,-0.01,0.02,-0.41000000000000003,-0.24,0.31,9.790000000000001
1686659315.708544,2.0,-25.5,-44.0,-0.26,0.33,9.35,0.001090830782496456,-0.002181661564992912,0.001090830782496456,183.75,-1.375,-1.8125,0.0,0.0,-0.4,-0.24,0.31,9.790000000000001
1686659315.759716,2.0,-25.1875,-44.875,-0.25,0.33,9.370000000000001,0.0,-0.002181661564992912,-0.001090830782496456,183.75,-1.375,-1.8125,-0.01,0.0,-0.41000000000000003,-0.24,0.31,9.790000000000001
1686659315.810964,2.5625,-25.1875,-44.0625,-0.24,0.32,9.35,0.001090830782496456,-0.002181661564992912,0.0,183.75,-1.375,-1.8125,-0.01,0.03,-0.4,-0.24,0.31,9.790000000000001
1686659315.860882,3.75,-25.1875,-44.75,-0.25,0.34,9.39,0.001090830782496456,-0.001090830782496456,0.0,183.75,-1.375,-1.8125,0.0,0.02,-0.41000000000000003,-0.24,0.31,9.790000000000001
1686659315.911268,2.5625,-24.75,-43.25,-0.22,0.34,9.39,0.0,0.0,0.0,183.75,-1.375,-1.8125,-0.01,0.01,-0.43,-0.24,0.31,9.790000000000001
1686659315.961237,2.25,-24.75,-44.375,-0.24,0.33,9.370000000000001,0.001090830782496456,-0.002181661564992912,0.001090830782496456,183.75,-1.375,-1.8125,0.01,0.03,-0.42,-0.24,0.31,-317.89
1686659316.011382,2.0,-25.1875,-44.5,-0.25,0.33,9.4,0.0,-0.002181661564992912,0.001090830782496456,183.75,-1.375,-1.8125,0.0,0.01,-0.43,-0.24,0.31,9.790000000000001
1686659316.062003,1.5625,-25.1875,-43.1875,-0.23,0.33,9.38,0.002181661564992912,-0.001090830782496456,0.0,183.75,-1.375,-1.8125,-0.01,0.02,-0.41000000000000003,-0.24,0.31,9.790000000000001
1686659316.111693,3.375,-25.5,-44.5,-0.25,0.33,9.370000000000001,-0.001090830782496456,0.002181661564992912,0.0,183.75,-1.375,-1.8125,0.0,0.04,-0.41000000000000003,-0.24,0.31,9.790000000000001
1686659316.161681,3.0,-25.1875,-44.375,-0.26,0.34,9.36,0.001090830782496456,0.0,0.0,183.75,-1.375,-1.8125,0.0,0.03,-0.42,-0.24,0.31,9.790000000000001
1686659316.212618,3.375,-24.75,-44.0,-0.25,0.33,9.38,-0.001090830782496456,0.002181661564992912,0.001090830782496456,183.75,-1.375,-1.8125,0.0,0.02,-0.4,-0.24,0.31,9.790000000000001
1686659316.262501,2.25,-25.1875,-44.0,-0.26,0.34,9.39,-0.001090830782496456,-0.002181661564992912,0.0,183.75,-1.375,-1.8125,0.0,0.03,-0.39,-0.24,0.31,9.790000000000001
1686659316.313339,2.5625,-24.75,-42.875,-0.25,0.34,9.36,0.0,0.001090830782496456,0.001090830782496456,183.75,-1.375,-1.8125,0.0,0.02,-0.4,-0.24,0.31,9.790000000000001
1686659316.362989,3.0,-25.875,-43.5625,-0.25,0.36,9.36,0.0,0.003272492347489368,0.001090830782496456,183.75,-1.375,-1.8125,-0.03,0.02,-0.41000000000000003,-0.24,0.31,9.790000000000001
1686659316.413728,3.0,-25.1875,-44.375,-0.25,0.33,9.38,0.0,-0.001090830782496456,0.001090830782496456,183.75,-1.375,-1.8125,-0.01,0.01,-0.42,-0.24,0.31,9.790000000000001
1686659316.46342,3.0,-25.1875,-44.0625,-0.27,0.32,9.36,0.001090830782496456,-0.003272492347489368,0.0,183.75,-1.375,-1.8125,-0.01,0.04,-0.42,-0.24,0.31,9.790000000000001
1686659316.513653,3.375,-24.75,-43.5625,-0.24,0.33,9.38,0.001090830782496456,0.002181661564992912,-0.002181661564992912,183.75,-1.375,-1.8125,-0.01,0.03,-0.39,-0.24,0.31,9.790000000000001
1686659316.564342,2.25,-25.5,-44.0,-0.26,0.33,9.370000000000001,-0.001090830782496456,-0.001090830782496456,0.0,183.75,-1.375,-1.8125,-0.01,0.02,-0.4,-0.24,0.31,9.790000000000001
1686659316.61365,3.0,-24.0,-43.25,-0.25,0.35000000000000003,9.38,0.001090830782496456,-0.001090830782496456,0.0,183.75,-1.375,-1.8125,-0.01,0.04,-0.42,-0.24,0.31,9.790000000000001
1686659316.663554,3.0,-25.875,-43.5625,-0.24,0.35000000000000003,9.370000000000001,0.0,0.0,-0.001090830782496456,183.75,-1.375,-1.8125,-0.02,0.02,-0.43,-0.24,0.31,9.790000000000001
1686659316.713282,2.0,-25.5,-44.875,-0.27,0.34,9.33,-0.001090830782496456,-0.001090830782496456,0.002181661564992912,183.75,-1.375,-1.8125,0.0,0.0,-0.42,-0.24,0.31,9.790000000000001
1686659316.763747,3.375,-24.75,-43.25,-0.24,0.34,9.36,-0.001090830782496456,0.0,-0.001090830782496456,183.75,-1.375,-1.8125,0.0,0.03,-0.4,-0.24,0.31,9.790000000000001
1686659316.813471,2.5625,-25.875,-43.25,-0.25,0.34,9.38,0.001090830782496456,-0.001090830782496456,0.001090830782496456,183.75,-1.375,-1.8125,-0.01,0.04,-0.43,-0.24,0.31,9.790000000000001
1686659316.863597,3.375,-25.5,-44.5,-0.24,0.34,9.370000000000001,-0.001090830782496456,0.0,-0.002181661564992912,183.75,-1.375,-1.8125,0.0,0.02,-0.38,-0.24,0.31,9.790000000000001
1686659316.913718,2.5625,-24.75,-44.0625,-0.27,0.33,9.370000000000001,-0.001090830782496456,-0.001090830782496456,0.001090830782496456,183.75,-1.375,-1.8125,0.0,0.01,-0.4,-0.24,0.31,9.790000000000001
1686659316.963747,3.0,-26.1875,-43.1875,-0.24,0.33,9.38,-0.001090830782496456,0.002181661564992912,-0.001090830782496456,183.75,-1.375,-1.8125,-0.01,0.05,-0.4,-0.24,0.31,9.790000000000001
1686659317.014799,3.0,-25.5,-44.0625,-0.25,0.34,9.370000000000001,0.0,-0.00545415391248228,0.0,183.75,-1.375,-1.8125,-0.01,0.05,-0.39,-0.24,0.31,9.790000000000001
1686659317.064591,2.5625,-25.5,-44.375,-0.25,0.33,9.370000000000001,0.001090830782496456,-0.004363323129985824,0.001090830782496456,183.75,-1.375,-1.8125,-0.01,0.04,-0.38,-0.24,0.31,9.790000000000001
1686659317.11461,3.375,-24.75,-44.0,-0.25,0.34,9.370000000000001,0.002181661564992912,-0.002181661564992912,0.001090830782496456,183.75,-1.375,-1.8125,-0.02,0.02,-0.38,-0.24,0.31,9.790000000000001
1686659317.170408,2.0,-24.75,-44.0,-0.26,0.34,9.38,0.001090830782496456,0.0,-0.001090830782496456,183.75,-1.375,-1.8125,0.0,0.03,-0.4,-0.24,0.31,9.790000000000001
1686659317.220899,2.5625,-24.75,-43.1875,-0.24,0.34,9.38,0.001090830782496456,0.004363323129985824,0.001090830782496456,183.75,-1.375,-1.8125,-0.01,0.02,-0.42,-0.24,0.31,9.790000000000001
1686659317.271019,3.0,-26.1875,-43.1875,-0.22,0.33,9.36,0.0,0.0,0.001090830782496456,183.75,-1.375,-1.8125,-0.01,0.03,-0.41000000000000003,-0.24,0.31,9.790000000000001
1686659317.320995,3.0,-25.875,-44.5,-0.22,0.34,9.370000000000001,0.001090830782496456,0.002181661564992912,0.001090830782496456,183.75,-1.375,-1.8125,0.0,0.0,-0.41000000000000003,-0.24,0.31,9.790000000000001
1686659317.371272,2.5625,-24.75,-44.375,-0.25,0.33,9.370000000000001,0.0,0.0,-0.001090830782496456,183.75,-1.375,-1.8125,0.0,0.04,-0.44,-0.24,0.31,9.790000000000001
1686659317.421875,3.0,-25.5,-44.6875,-0.25,0.33,9.35,0.0,0.0,-0.001090830782496456,183.75,-1.375,-1.8125,-0.03,0.01,-0.4,-0.24,0.31,9.790000000000001
1686659317.471589,3.375,-24.75,-43.1875,-0.25,0.34,9.36,0.0,-0.001090830782496456,0.001090830782496456,183.75,-1.375,-1.8125,-0.01,0.04,-0.41000000000000003,-0.24,0.31,9.790000000000001
1686659317.52278,2.5625,-25.5,-44.0,-0.26,0.33,9.35,0.0,0.001090830782496456,-0.001090830782496456,183.75,-1.375,-1.8125,0.0,0.03,-0.41000000000000003,-0.24,0.31,9.790000000000001
1686659317.572845,2.25,-25.1875,-42.75,-0.23,0.32,9.38,0.001090830782496456,0.001090830782496456,0.0,183.75,-1.375,-1.8125,-0.02,0.04,-0.4,-0.24,0.31,9.790000000000001
1686659317.622105,3.0,-24.75,-43.1875,-0.24,0.36,9.370000000000001,0.0,-0.002181661564992912,0.0,183.75,-1.375,-1.8125,0.0,0.02,-0.4,-0.24,0.31,9.790000000000001
1686659317.672317,3.375,-25.5,-43.5625,-0.26,0.32,9.38,0.001090830782496456,0.0,0.001090830782496456,183.75,-1.375,-1.8125,0.0,0.03,-0.39,-0.24,0.31,9.790000000000001
1686659317.722525,2.5625,-24.75,-43.5625,-0.25,0.34,9.370000000000001,0.0,0.002181661564992912,-0.002181661564992912,183.75,-1.375,-1.8125,0.0,0.02,-0.41000000000000003,-0.24,0.31,9.790000000000001
1686659317.77251,3.0,-25.1875,-43.1875,-0.24,0.33,9.38,0.0,0.0,-0.001090830782496456,183.75,-1.375,-1.8125,0.0,0.03,-0.39,-0.24,0.31,9.790000000000001
1686659317.822872,3.375,-25.5,-44.375,-0.25,0.33,9.35,0.0,0.002181661564992912,-0.001090830782496456,183.75,-1.375,-1.8125,-0.01,0.01,-0.42,-0.24,0.31,9.790000000000001
1686659317.872625,3.0,-25.1875,-45.1875,-0.22,0.34,9.36,-0.001090830782496456,0.002181661564992912,-0.001090830782496456,183.75,-1.375,-1.8125,-0.01,0.03,-0.43,-0.24,0.31,9.790000000000001
1686659317.922958,2.25,-24.75,-44.375,-0.26,0.33,9.36,-0.001090830782496456,-0.001090830782496456,0.0,183.75,-1.375,-1.8125,0.0,0.04,-0.41000000000000003,-0.24,0.31,9.790000000000001
1686659317.974336,3.0,-25.1875,-44.0,-0.24,0.34,9.38,-0.002181661564992912,0.002181661564992912,-0.001090830782496456,183.75,-1.375,-1.8125,-0.01,0.03,-0.41000000000000003,-0.24,0.31,9.790000000000001
1686659318.024832,2.25,-24.75,-43.5625,-0.25,0.33,9.4,-0.001090830782496456,0.001090830782496456,-0.001090830782496456,183.75,-1.375,-1.8125,-0.01,0.03,-0.4,-0.24,0.31,9.790000000000001
1686659318.074561,3.375,-25.1875,-42.6875,-0.27,0.33,9.39,0.0,-0.003272492347489368,0.001090830782496456,183.75,-1.375,-1.8125,0.02,0.03,-0.4,-0.24,0.31,9.790000000000001
1686659318.124457,5.1875,-25.1875,-44.0,-0.26,0.32,9.370000000000001,0.001090830782496456,-0.001090830782496456,0.0,183.75,-1.375,-1.8125,-0.01,0.03,-0.4,-0.24,0.31,9.790000000000001
1686659318.174466,3.0,-25.875,-44.0,-0.23,0.33,9.38,0.0,0.0,-0.001090830782496456,183.75,-1.375,-1.8125,-0.01,0.04,-0.4,-0.24,0.31,9.790000000000001
1686659318.225209,2.25,-24.75,-43.5625,-0.24,0.35000000000000003,9.34,0.0,-0.001090830782496456,0.0,183.75,-1.375,-1.8125,0.0,0.03,-0.4,-0.24,0.31,9.790000000000001
1686659318.275032,2.25,-25.5,-43.5625,-0.26,0.35000000000000003,9.39,0.0,-0.002181661564992912,0.0,183.75,-1.375,-1.8125,-0.01,0.0,-0.42,-0.24,0.31,9.790000000000001
1686659318.325636,3.0,-25.5,-44.0,-0.24,0.35000000000000003,9.370000000000001,-0.001090830782496456,0.0,0.001090830782496456,183.75,-1.375,-1.8125,-0.02,0.03,-0.38,-0.24,0.31,9.790000000000001
1686659318.375187,3.75,-25.5,-44.25,-0.24,0.33,9.39,-0.001090830782496456,-0.003272492347489368,0.0,183.75,-1.375,-1.8125,-0.01,0.02,-0.41000000000000003,-0.24,0.31,9.790000000000001
1686659318.425871,2.5625,-25.875,-43.5,-0.24,0.35000000000000003,9.38,0.001090830782496456,0.002181661564992912,-0.001090830782496456,183.75,-1.375,-1.8125,-0.01,0.03,-0.42,-0.24,0.31,9.790000000000001
1686659318.476542,2.25,-24.375,-43.875,-0.26,0.33,9.39,0.0,0.003272492347489368,0.001090830782496456,183.75,-1.375,-1.8125,-0.02,0.02,-0.4,-0.24,0.31,9.790000000000001
1686659318.527447,2.5625,-25.5,-43.5,-0.25,0.33,9.38,0.0,0.0,-0.001090830782496456,183.75,-1.375,-1.8125,-0.01,0.03,-0.4,-0.24,0.31,9.790000000000001
1686659318.577715,3.75,-24.375,-44.0,-0.25,0.32,9.38,0.0,-0.001090830782496456,0.0,183.75,-1.375,-1.8125,-0.01,0.02,-0.4,-0.24,0.31,9.790000000000001
1686659318.627968,2.25,-25.1875,-43.0625,-0.23,0.33,9.39,-0.001090830782496456,0.001090830782496456,-0.003272492347489368,183.75,-1.375,-1.8125,0.0,0.03,-0.38,-0.24,0.31,9.790000000000001
1686659318.678014,2.5625,-24.75,-44.0,-0.27,0.34,9.38,0.0,-0.002181661564992912,0.0,183.75,-1.375,-1.8125,-0.01,0.03,-0.38,-0.24,0.31,9.790000000000001
1686659318.729187,2.25,-25.875,-43.5,-0.25,0.34,9.38,-0.001090830782496456,-0.001090830782496456,0.001090830782496456,183.75,-1.375,-1.8125,0.0,0.04,-0.42,-0.24,0.31,9.790000000000001
1686659318.778253,3.0,-24.75,-43.875,-0.25,0.33,9.38,0.001090830782496456,-0.003272492347489368,0.001090830782496456,183.75,-1.375,-1.8125,0.01,0.01,-0.39,-0.24,0.31,9.790000000000001
1686659318.830633,3.375,-25.1875,-43.5625,-0.25,0.34,9.370000000000001,-0.001090830782496456,0.0,0.001090830782496456,183.75,-1.375,-1.8125,-0.01,0.01,-0.38,-0.24,0.31,9.790000000000001
1686659318.88076,4.0625,-24.75,-44.0,-0.23,0.35000000000000003,9.38,0.001090830782496456,-0.004363323129985824,0.0,183.75,-1.375,-1.8125,0.0,0.02,-0.39,-0.24,0.31,9.790000000000001
1686659318.932069,2.5625,-25.875,-44.75,-0.23,0.34,9.36,0.001090830782496456,-0.001090830782496456,0.0,183.75,-1.375,-1.8125,0.0,0.04,-0.41000000000000003,-0.24,0.31,9.790000000000001
1686659318.982333,3.75,-24.75,-44.25,-0.26,0.33,9.370000000000001,0.0,0.0,0.001090830782496456,183.75,-1.375,-1.8125,0.0,0.01,-0.42,-0.24,0.31,9.790000000000001
1686659319.033041,2.5625,-24.0,-45.0625,-0.27,0.33,9.370000000000001,0.001090830782496456,-0.002181661564992912,-0.002181661564992912,183.75,-1.375,-1.8125,0.0,0.03,-0.37,-0.24,0.31,9.790000000000001
1686659319.083303,4.0625,-25.875,-44.375,-0.25,0.35000000000000003,9.38,0.001090830782496456,-0.003272492347489368,0.002181661564992912,183.75,-1.375,-1.8125,-0.02,0.02,-0.39,-0.24,0.31,9.790000000000001
1686659319.133438,2.5625,-24.375,-45.0625,-0.26,0.33,9.39,0.0,0.0,0.001090830782496456,183.75,-1.375,-1.8125,-0.01,0.01,-0.41000000000000003,-0.24,0.31,9.790000000000001
1686659319.183974,4.0625,-25.875,-43.5,-0.25,0.33,9.36,0.0,0.0,0.0,183.75,-1.375,-1.8125,-0.01,0.01,-0.42,-0.24,0.31,9.790000000000001
1686659319.234605,2.25,-25.5,-43.5,-0.26,0.34,9.39,-0.001090830782496456,0.001090830782496456,-0.001090830782496456,183.75,-1.375,-1.8125,-0.01,0.06,-0.4,-0.24,0.31,9.790000000000001
1686659319.284797,2.25,-25.1875,-44.0,-0.23,0.32,9.38,-0.001090830782496456,0.002181661564992912,0.0,183.75,-1.375,-1.8125,0.0,0.03,-0.41000000000000003,-0.24,0.31,9.790000000000001
1686659319.335527,3.375,-25.5,-44.25,-0.25,0.36,9.38,-0.001090830782496456,0.0,0.0,183.75,-1.375,-1.8125,0.0,0.02,-0.4,-0.24,0.31,9.790000000000001
1686659319.38597,2.5625,-24.375,-43.875,-0.25,0.32,9.4,0.001090830782496456,0.002181661564992912,-0.001090830782496456,183.75,-1.375,-1.8125,-0.01,0.03,-0.39,-0.24,0.31,9.790000000000001
1686659319.437825,2.0,-25.1875,-43.875,-0.22,0.35000000000000003,9.38,0.0,-0.001090830782496456,0.001090830782496456,183.75,-1.375,-1.8125,-0.01,0.01,-0.43,-0.24,0.31,9.790000000000001
1686659319.487134,3.0,-25.875,-44.6875,-0.24,0.34,9.38,0.0,-0.001090830782496456,-0.001090830782496456,183.75,-1.375,-1.8125,0.0,0.03,-0.4,-0.24,0.31,9.790000000000001
1686659319.537794,2.5625,-24.375,-42.6875,-0.25,0.34,9.39,-0.002181661564992912,0.002181661564992912,-0.001090830782496456,183.75,-1.375,-1.8125,-0.01,0.03,-0.41000000000000003,-0.24,0.31,9.790000000000001
1686659319.587277,3.75,-24.375,-43.5,-0.24,0.33,9.36,-0.002181661564992912,0.0,0.0,183.75,-1.375,-1.8125,0.01,0.04,-0.37,-0.24,0.31,9.790000000000001
1686659319.637506,2.25,-25.1875,-43.0625,-0.25,0.37,9.39,-0.001090830782496456,-0.001090830782496456,-0.001090830782496456,183.75,-1.375,-1.8125,-0.01,0.01,-0.4,-0.24,0.31,9.790000000000001
1686659319.687623,2.25,-25.1875,-43.1875,-0.26,0.35000000000000003,9.39,0.0,0.0,0.0,183.75,-1.375,-1.8125,0.0,0.02,-0.42,-0.24,0.31,9.790000000000001
1686659319.738613,2.0,-24.75,-44.0,-0.24,0.33,8.1,0.0,-0.002181661564992912,0.001090830782496456,183.75,-1.375,-1.8125,-0.01,0.03,-0.41000000000000003,-0.24,0.31,9.790000000000001
1686659319.788746,3.0,-25.1875,-43.5,-0.24,0.33,9.38,0.0,0.0,0.001090830782496456,183.75,-1.375,-1.8125,-0.01,0.02,-0.38,-0.24,0.31,9.790000000000001
1686659319.839194,3.0,-25.1875,-44.0,-0.25,0.33,9.38,0.002181661564992912,-0.002181661564992912,0.0,183.75,-1.375,-1.8125,0.0,0.03,-0.41000000000000003,-0.24,0.31,9.790000000000001
1686659319.890196,3.0,-25.1875,-36.6875,-0.26,0.34,9.38,-0.001090830782496456,-0.001090830782496456,0.0,183.75,-1.375,-1.8125,0.0,0.03,-0.41000000000000003,-0.24,0.31,9.790000000000001
1686659319.94058,1.1875,-25.1875,-44.25,-0.24,0.34,9.4,-0.001090830782496456,0.0,-0.001090830782496456,183.75,-1.375,-1.8125,-0.01,0.02,-0.42,-0.24,0.31,9.790000000000001
1686659319.990521,3.375,-24.75,-44.6875,-0.24,0.34,9.370000000000001,0.001090830782496456,0.0,-0.001090830782496456,183.75,-1.375,-1.8125,0.0,0.03,-0.38,-0.24,0.31,9.790000000000001
1686659320.040771,3.375,-25.1875,-44.6875,-0.23,0.33,9.36,-0.001090830782496456,0.0,0.0,183.75,-1.375,-1.8125,0.0,0.04,-0.37,-0.24,0.31,9.790000000000001
1686659320.090876,3.0,-24.375,-43.0625,-0.24,0.33,9.39,0.0,0.0,-0.001090830782496456,183.75,-1.375,-1.8125,-0.01,0.04,-0.41000000000000003,-0.24,0.31,9.790000000000001
1686659320.141892,1.5625,-25.5,-43.1875,-0.24,0.33,9.4,0.0,-0.002181661564992912,-0.001090830782496456,183.75,-1.375,-1.8125,-0.01,0.02,-0.4,-0.24,0.31,9.790000000000001
1686659320.192029,2.25,-25.1875,-43.875,-0.24,0.35000000000000003,9.38,0.0,-0.001090830782496456,0.0,183.75,-1.375,-1.8125,0.0,0.01,-0.39,-0.24,0.31,9.790000000000001
1686659320.242321,2.5625,-24.75,-43.0625,-0.24,0.36,9.38,-0.001090830782496456,0.001090830782496456,-0.002181661564992912,183.75,-1.375,-1.8125,0.0,0.01,-0.39,-0.24,0.31,9.790000000000001
1686659320.292217,3.375,-25.5,-44.6875,-0.26,0.34,9.39,0.001090830782496456,-0.001090830782496456,0.0,183.75,-1.375,-1.8125,0.0,0.02,-0.4,-0.24,0.31,9.790000000000001
1686659320.342557,3.0,-25.5,-43.5,-0.24,0.35000000000000003,9.39,0.0,-0.002181661564992912,0.0,183.75,-1.375,-1.8125,0.0,0.03,-0.41000000000000003,-0.24,0.31,9.790000000000001
1686659320.393823,3.0,-24.375,-44.375,-0.26,0.36,9.38,0.0,0.001090830782496456,0.001090830782496456,183.75,-1.375,-1.8125,-0.02,0.02,-0.41000000000000003,-0.24,0.31,9.790000000000001
1686659320.444826,3.0,-24.75,-43.875,-0.25,0.34,9.39,-0.002181661564992912,0.002181661564992912,-0.001090830782496456,183.75,-1.375,-1.8125,0.0,0.03,-0.4,-0.24,0.31,9.790000000000001
1686659320.495062,2.0,-24.75,-44.6875,-0.26,0.36,9.38,0.0,-0.003272492347489368,0.001090830782496456,183.75,-1.375,-1.8125,0.0,0.02,-0.41000000000000003,-0.24,0.31,9.790000000000001
1686659320.545309,3.75,-24.75,-44.375,-0.25,0.34,9.36,0.001090830782496456,0.0,0.0,183.75,-1.375,-1.8125,-0.01,0.01,-0.39,-0.24,0.31,9.790000000000001
1686659320.595269,3.75,-24.75,-43.5,-0.24,0.33,9.39,0.0,0.001090830782496456,0.0,183.75,-1.375,-1.8125,-0.01,0.03,-0.43,-0.24,0.31,9.790000000000001
1686659320.646328,3.0,-25.1875,-44.25,-0.25,0.33,9.38,0.0,0.001090830782496456,-0.001090830782496456,183.75,-1.375,-1.8125,-0.01,0.04,-0.42,-0.24,0.31,9.790000000000001
1686659320.69646,4.5,-25.5,-44.0,-0.24,0.33,9.39,0.0,0.001090830782496456,0.0,183.75,-1.375,-1.8125,0.0,0.01,-0.41000000000000003,-0.24,0.31,9.790000000000001
1686659320.747067,3.0,-24.75,-44.0,-0.26,0.33,9.39,0.0,0.001090830782496456,0.001090830782496456,183.75,-1.375,-1.8125,-0.01,0.0,-0.43,-0.24,0.31,9.790000000000001
1686659320.797272,3.0,-25.1875,-44.75,-0.24,0.33,9.38,0.0,-0.001090830782496456,-0.001090830782496456,183.75,-1.375,-1.8125,-0.01,0.03,-0.39,-0.24,0.31,9.790000000000001
1686659320.848326,3.75,-25.1875,-44.0,-0.24,0.35000000000000003,9.39,0.001090830782496456,-0.004363323129985824,0.0,183.75,-1.375,-1.8125,-0.01,0.02,-0.42,-0.24,0.31,9.790000000000001
1686659320.89858,3.375,-25.5,-43.5,-0.25,0.34,9.38,-0.001090830782496456,0.0,0.0,183.75,-1.375,-1.8125,0.0,0.05,-0.42,-0.24,0.31,9.790000000000001
1686659320.949177,2.25,-25.5,-44.6875,-0.25,0.33,9.38,0.0,0.001090830782496456,0.002181661564992912,183.75,-1.375,-1.8125,-0.02,0.02,-0.41000000000000003,-0.24,0.31,9.790000000000001
1686659320.99944,2.0,-25.5,-43.875,-0.24,0.34,9.38,0.001090830782496456,-0.002181661564992912,0.0,183.75,-1.375,-1.8125,-0.01,0.02,-0.4,-0.24,0.31,9.790000000000001
1686659321.05012,2.5625,-25.1875,-43.5625,-0.25,0.32,9.370000000000001,-0.001090830782496456,0.002181661564992912,0.0,183.75,-1.375,-1.8125,-0.01,0.01,-0.39,-0.24,0.31,9.790000000000001
1686659321.100601,3.375,-26.1875,-44.0,-0.26,0.33,9.370000000000001,0.0,0.0,-0.001090830782496456,183.75,-1.375,-1.8125,0.0,0.04,-0.38,-0.24,0.31,9.790000000000001
1686659321.150926,3.0,-25.1875,-44.0,-0.24,0.34,9.42,0.001090830782496456,-0.003272492347489368,-0.001090830782496456,183.75,-1.375,-1.8125,-0.01,0.02,-0.43,-0.24,0.31,9.790000000000001
1686659321.201019,3.0,-25.5,-44.0,-0.26,0.35000000000000003,9.4,0.001090830782496456,0.001090830782496456,0.0,183.75,-1.375,-1.8125,0.0,0.05,-0.42,-0.24,0.31,9.790000000000001
1686659321.251253,3.0,-24.375,-44.375,-0.26,0.33,9.35,0.0,-0.003272492347489368,0.001090830782496456,183.75,-1.375,-1.8125,-0.03,0.02,-0.39,-0.24,0.31,9.790000000000001
1686659321.301358,3.0,-25.5,-43.875,-0.24,0.34,9.370000000000001,0.001090830782496456,0.001090830782496456,-0.001090830782496456,183.75,-1.375,-1.8125,-0.02,0.02,-0.39,-0.24,0.31,9.790000000000001
1686659321.353203,4.0625,-24.0,-44.375,-0.26,0.34,9.39,0.0,-0.001090830782496456,-0.001090830782496456,183.75,-1.375,-1.8125,-0.01,0.01,-0.41000000000000003,-0.24,0.31,9.790000000000001
1686659321.403343,3.0,-24.75,-43.5,-0.25,0.34,9.39,0.0,0.0,-0.002181661564992912,183.75,-1.375,-1.8125,-0.01,0.03,-0.42,-0.24,0.31,9.790000000000001
1686659321.453465,2.0,-24.375,-43.5,-0.25,0.34,9.38,0.001090830782496456,-0.001090830782496456,0.0,183.75,-1.375,-1.8125,0.0,0.03,-0.42,-0.24,0.31,9.790000000000001
1686659321.50355,2.0,-25.1875,-44.25,-0.25,0.33,9.38,-0.001090830782496456,0.0,0.001090830782496456,183.75,-1.375,-1.8125,-0.01,0.04,-0.39,-0.24,0.31,9.790000000000001
1686659321.553487,3.0,-24.75,-43.875,-0.26,0.37,9.38,0.0,0.001090830782496456,0.001090830782496456,183.75,-1.375,-1.8125,-0.01,0.03,-0.41000000000000003,-0.24,0.31,9.790000000000001
1686659321.603817,2.5625,-25.1875,-44.6875,-0.25,0.33,9.4,-0.001090830782496456,0.0,0.001090830782496456,183.75,-1.375,-1.8125,0.0,0.03,-0.41000000000000003,-0.24,0.31,9.790000000000001
1686659321.655037,2.25,-25.5,-44.25,-0.23,0.33,9.39,0.001090830782496456,-0.001090830782496456,0.0,183.75,-1.375,-1.8125,-0.01,0.0,-0.38,-0.24,0.31,9.790000000000001
1686659321.705094,3.0,-25.1875,-44.375,-0.25,0.34,9.39,0.0,0.0,0.0,183.75,-1.375,-1.8125,-0.01,0.03,-0.4,-0.24,0.31,9.790000000000001
1686659321.755641,2.25,-25.1875,-44.375,-0.25,0.34,9.41,0.002181661564992912,0.0,-0.001090830782496456,183.75,-1.375,-1.8125,0.0,0.02,-0.4,-0.24,0.31,9.790000000000001
1686659321.805336,2.25,-25.5,-43.0625,-0.24,0.31,9.38,0.0,0.0,0.001090830782496456,183.75,-1.375,-1.8125,0.0,0.03,-0.38,-0.24,0.31,9.790000000000001
1686659321.855972,3.75,-25.1875,-43.0625,-0.25,0.33,9.39,0.0,0.002181661564992912,0.0,183.75,-1.375,-1.8125,-0.02,0.03,-0.41000000000000003,-0.24,0.31,9.790000000000001
1686659321.907154,2.5625,-25.5,-43.875,-0.25,0.34,9.39,0.0,-0.002181661564992912,-0.001090830782496456,183.75,-1.375,-1.8125,0.0,0.04,-0.42,-0.24,0.31,9.790000000000001
1686659321.957822,3.75,-25.1875,-44.0,-0.24,0.34,9.39,0.001090830782496456,0.001090830782496456,0.001090830782496456,183.75,-1.375,-1.8125,-0.01,0.04,-0.42,-0.24,0.31,9.790000000000001
1686659322.008326,2.5625,-25.1875,-45.0625,-0.26,0.35000000000000003,9.38,0.0,0.0,0.0,183.75,-1.375,-1.8125,-0.01,0.03,-0.42,-0.24,0.31,9.790000000000001
1686659322.058309,3.375,-25.1875,-44.0,-0.25,0.32,9.38,0.0,0.002181661564992912,-0.001090830782496456,183.75,-1.375,-1.8125,0.0,0.01,-0.42,-0.24,0.31,9.790000000000001
1686659322.108658,3.375,-25.5,-44.25,-0.25,0.33,9.38,0.001090830782496456,-0.002181661564992912,0.0,183.75,-1.375,-1.8125,-0.02,0.04,-0.41000000000000003,-0.24,0.31,9.790000000000001
1686659322.159494,3.375,-25.1875,-44.0,-0.25,0.35000000000000003,9.370000000000001,0.001090830782496456,0.0,0.001090830782496456,183.75,-1.375,-1.8125,-0.01,0.04,-0.44,-0.24,0.31,9.790000000000001
1686659322.208464,4.0625,-24.75,-45.1875,-0.27,0.33,9.4,0.0,0.002181661564992912,0.0,183.75,-1.375,-1.8125,-0.01,0.02,-0.43,-0.24,0.31,9.790000000000001
1686659322.259053,2.5625,-25.1875,-44.75,-0.23,0.34,9.4,0.0,0.003272492347489368,0.001090830782496456,183.75,-1.375,-1.8125,0.0,0.05,-0.41000000000000003,-0.24,0.31,9.790000000000001
1686659322.30894,3.375,-25.875,-43.0625,-0.24,0.34,9.39,0.0,0.0,0.002181661564992912,183.75,-1.375,-1.8125,-0.02,0.02,-0.42,-0.24,0.31,9.790000000000001
1686659322.359251,2.0,-24.375,-44.6875,-0.25,0.34,9.4,0.001090830782496456,-0.003272492347489368,0.0,183.75,-1.375,-1.8125,-0.01,0.04,-0.43,-0.24,0.31,9.790000000000001
1686659322.409196,3.75,-25.1875,-44.375,-0.24,0.33,9.370000000000001,-0.002181661564992912,-0.003272492347489368,0.001090830782496456,183.75,-1.375,-1.8125,0.0,0.02,-0.41000000000000003,-0.24,0.31,9.790000000000001
1686659322.460709,2.5625,-25.5,-45.1875,-0.26,0.33,9.39,0.0,0.0,0.001090830782496456,183.75,-1.375,-1.8125,0.0,0.04,-0.41000000000000003,-0.24,0.31,9.790000000000001
1686659322.510632,3.375,-25.1875,-44.375,-0.25,0.34,9.38,0.0,0.003272492347489368,0.001090830782496456,183.75,-1.375,-1.8125,0.0,0.04,-0.44,-0.24,0.31,9.790000000000001
1686659322.560749,2.5625,-25.1875,-44.375,-0.23,0.33,9.4,0.001090830782496456,-0.002181661564992912,0.001090830782496456,183.75,-1.375,-1.8125,0.0,0.04,-0.44,-0.24,0.31,9.790000000000001
1686659322.610583,2.5625,-25.875,-43.875,-0.25,0.34,9.38,0.002181661564992912,0.003272492347489368,-0.001090830782496456,183.75,-1.375,-1.8125,0.0,0.03,-0.43,-0.24,0.31,9.790000000000001
1686659322.659902,2.25,-25.1875,-43.875,-0.25,0.34,9.39,0.001090830782496456,0.002181661564992912,0.0,183.75,-1.375,-1.8125,0.0,0.07,-0.39,-0.24,0.31,9.790000000000001
1686659322.711197,3.75,-24.375,-44.0,-0.24,0.32,9.39,0.001090830782496456,0.0,0.0,183.75,-1.375,-1.8125,-0.01,0.0,-0.39,-0.24,0.31,9.790000000000001
1686659322.761796,2.0,-24.75,-43.0625,-0.24,0.35000000000000003,9.39,0.002181661564992912,0.0,0.001090830782496456,183.75,-1.375,-1.8125,0.0,0.03,-0.41000000000000003,-0.24,0.31,9.790000000000001
1686659322.812119,1.5625,-25.1875,-43.875,-0.26,0.34,9.4,0.002181661564992912,0.001090830782496456,0.0,183.75,-1.375,-1.8125,0.0,0.03,-0.44,-0.24,0.31,9.790000000000001
1686659322.862603,2.5625,-25.1875,-43.5,-0.26,0.33,9.39,0.0,0.0,0.001090830782496456,183.75,-1.375,-1.8125,-0.01,0.02,-0.43,-0.24,0.31,9.790000000000001
1686659322.912828,4.0625,-24.75,-44.375,-0.25,0.31,9.4,-0.001090830782496456,0.002181661564992912,0.001090830782496456,183.75,-1.375,-1.8125,-0.02,0.02,-0.42,-0.24,0.31,9.790000000000001
1686659322.963646,3.75,-24.75,-43.5,-0.24,0.33,9.370000000000001,0.001090830782496456,0.002181661564992912,0.0,183.75,-1.375,-1.8125,-0.01,0.02,-0.43,-0.24,0.31,9.790000000000001
1686659323.013619,3.0,-24.75,-44.25,-0.24,0.34,9.4,0.0,-0.002181661564992912,-0.001090830782496456,183.75,-1.375,-1.8125,0.0,0.04,-0.43,-0.24,0.31,9.790000000000001
1686659323.064203,4.5,-25.5,-43.875,-0.26,0.33,9.39,-0.001090830782496456,0.0,0.0,183.75,-1.375,-1.8125,-0.02,0.02,-0.43,-0.24,0.31,9.790000000000001
1686659323.114412,2.5625,-24.75,-42.6875,-0.25,0.34,9.38,0.0,-0.001090830782496456,-0.001090830782496456,183.75,-1.375,-1.8125,-0.01,0.03,-0.43,-0.24,0.31,9.790000000000001
1686659323.164648,2.5625,-24.75,-44.0,-0.25,0.34,9.4,0.001090830782496456,0.001090830782496456,0.001090830782496456,183.75,-1.375,-1.8125,-0.01,0.01,-0.43,-0.24,0.31,9.790000000000001
1686659323.214716,2.5625,-25.1875,-44.25,-0.24,0.33,9.35,0.0,-0.001090830782496456,-0.002181661564992912,183.75,-1.375,-1.8125,0.0,0.03,-0.42,-0.24,0.31,9.790000000000001
1686659323.266035,2.0,-25.1875,-43.5,-0.25,0.34,9.38,0.0,-0.003272492347489368,-0.002181661564992912,183.75,-1.375,-1.8125,0.0,0.03,-0.43,-0.24,0.31,9.790000000000001
1686659323.316216,3.375,-24.75,-43.5,-0.24,0.36,9.38,0.0,0.001090830782496456,0.001090830782496456,183.75,-1.375,-1.8125,0.0,0.04,-0.43,-0.24,0.31,9.790000000000001
1686659323.36671,3.0,-24.75,-44.25,-0.26,0.33,9.42,0.0,0.001090830782496456,-0.001090830782496456,183.75,-1.375,-1.8125,0.0,0.02,-0.42,-0.24,0.31,9.790000000000001
1686659323.416933,2.5625,-25.1875,-44.0,-0.24,0.34,9.370000000000001,-0.001090830782496456,0.001090830782496456,0.002181661564992912,183.75,-1.375,-1.8125,-0.01,0.02,-0.43,-0.24,0.31,9.790000000000001
1686659323.467255,2.5625,-25.875,-44.25,-0.24,0.33,9.370000000000001,0.001090830782496456,-0.001090830782496456,0.001090830782496456,183.75,-1.375,-1.8125,-0.02,0.04,-0.41000000000000003,-0.24,0.31,9.790000000000001
1686659323.518661,1.5625,-24.375,2003.75,-0.26,0.35000000000000003,9.38,0.0,0.0,0.0,183.75,-1.375,-1.8125,-0.02,0.01,-0.42,-0.24,0.31,9.790000000000001
1686659323.570929,3.375,-24.375,-42.6875,-0.26,0.33,9.370000000000001,0.0,0.0,-0.001090830782496456,183.75,-1.375,-1.8125,0.0,0.02,-0.4,-0.24,0.31,9.790000000000001
1686659323.624391,3.0,-25.1875,-43.75,-0.23,0.34,9.4,0.001090830782496456,-0.001090830782496456,0.0,183.75,-1.375,-1.8125,-0.01,0.01,-0.42,-0.24,0.31,9.790000000000001
1686659323.676833,2.5625,-24.375,-43.0625,-0.24,0.32,9.36,0.0,0.0,0.001090830782496456,183.75,-1.375,-1.8125,0.0,0.02,-0.4,-0.24,0.31,9.790000000000001
1686659323.729098,3.375,-25.1875,-43.0,-0.23,0.35000000000000003,9.38,-0.002181661564992912,0.001090830782496456,-0.001090830782496456,183.75,-1.375,-1.8125,-0.01,0.04,-0.4,-0.24,0.31,9.790000000000001
1686659323.78089,3.75,-25.5,-43.875,-0.24,0.33,9.38,-0.001090830782496456,0.001090830782496456,0.0,183.75,-1.375,-1.8125,-0.01,0.03,-0.42,-0.24,0.31,9.790000000000001
1686659323.831678,3.375,-25.5,-44.1875,-0.27,0.36,9.39,0.0,0.001090830782496456,-0.001090830782496456,183.75,-1.375,-1.8125,0.0,0.03,-0.39,-0.24,0.31,9.790000000000001
1686659323.882383,3.375,-25.1875,-43.875,-0.25,0.33,9.36,0.002181661564992912,-0.001090830782496456,-0.001090830782496456,183.75,-1.375,-1.8125,0.0,0.01,-0.4,-0.24,0.31,9.790000000000001
1686659323.932657,3.375,-25.1875,-43.0,-0.25,0.33,9.38,0.002181661564992912,-0.002181661564992912,0.0,183.75,-1.375,-1.8125,-0.02,0.05,-0.4,-0.24,0.31,9.790000000000001
1686659323.982695,3.0,-24.0,-43.375,-0.26,0.34,9.370000000000001,0.001090830782496456,-0.002181661564992912,0.001090830782496456,183.75,-1.375,-1.8125,0.0,0.02,-0.41000000000000003,-0.24,0.31,9.790000000000001
1686659324.032781,3.0,-24.375,-45.0625,-0.23,0.33,9.34,0.001090830782496456,0.0,0.0,183.75,-1.375,-1.8125,0.0,0.03,-0.39,-0.24,0.31,9.790000000000001
1686659324.083614,4.0625,-25.1875,-44.25,-0.25,0.33,9.36,0.001090830782496456,-0.003272492347489368,0.0,183.75,-1.375,-1.8125,0.0,0.03,-0.39,-0.24,0.31,9.790000000000001
1686659324.133672,2.0,-24.75,-43.875,-0.24,0.34,9.39,0.001090830782496456,-0.002181661564992912,0.0,183.75,-1.375,-1.8125,-0.02,0.03,-0.4,-0.24,0.31,9.790000000000001
1686659324.183774,2.5625,-25.5,-45.0625,-0.22,0.35000000000000003,9.35,0.002181661564992912,0.0,0.0,183.75,-1.375,-1.8125,-0.02,0.02,-0.42,-0.24,0.31,9.790000000000001
1686659324.234035,2.5625,-25.5,-43.0,-0.24,0.36,9.38,0.002181661564992912,0.0,0.0,183.75,-1.375,-1.8125,-0.01,0.02,-0.43,-0.24,0.31,9.790000000000001
1686659324.284215,3.375,-25.5,-43.375,-0.25,0.33,9.38,-0.001090830782496456,-0.001090830782496456,0.0,183.75,-1.375,-1.8125,0.0,0.02,-0.43,-0.24,0.31,9.790000000000001
1686659324.335736,2.5625,-26.1875,-43.75,-0.24,0.34,9.36,0.0,0.001090830782496456,0.0,183.75,-1.375,-1.8125,-0.01,0.04,-0.4,-0.24,0.31,9.790000000000001
1686659324.385821,3.0,-24.75,-43.0,-0.24,0.31,9.33,0.0,-0.001090830782496456,-0.001090830782496456,183.75,-1.375,-1.8125,-0.03,0.01,-0.37,-0.24,0.31,9.790000000000001
1686659324.436156,3.0,-25.1875,-43.75,-0.23,0.35000000000000003,9.4,0.0,0.001090830782496456,0.0,183.75,-1.375,-1.8125,-0.01,0.04,-0.39,-0.24,0.31,9.790000000000001
1686659324.486656,3.0,-24.75,-43.5,-0.24,0.33,9.39,0.001090830782496456,0.002181661564992912,0.001090830782496456,183.75,-1.375,-1.8125,-0.01,0.01,-0.4,-0.24,0.31,9.790000000000001
1686659324.537208,2.0,-25.1875,-43.875,-0.25,0.35000000000000003,9.39,0.0,0.002181661564992912,-0.001090830782496456,183.75,-1.375,-1.8125,0.02,0.02,-0.42,-0.24,0.31,9.790000000000001
1686659324.588276,3.0,-25.5,-44.6875,-0.25,0.34,9.33,0.001090830782496456,-0.002181661564992912,0.0,183.75,-1.375,-1.8125,0.0,0.01,-0.38,-0.24,0.31,9.790000000000001
1686659324.638695,4.0625,-25.875,-43.875,-0.25,0.33,9.38,0.002181661564992912,0.0,-0.001090830782496456,183.75,-1.375,-1.8125,-0.01,0.04,-0.42,-0.24,0.31,9.790000000000001
1686659324.688939,3.75,-25.1875,-44.1875,-0.23,0.33,9.36,0.0,0.0,0.002181661564992912,183.75,-1.375,-1.8125,0.0,0.03,-0.42,-0.24,0.31,9.790000000000001
1686659324.739388,3.0,-24.75,-44.25,-0.24,0.32,9.38,0.002181661564992912,-0.001090830782496456,-0.002181661564992912,183.75,-1.375,-1.8125,0.0,0.03,-0.4,-0.24,0.31,9.790000000000001
1686659324.78955,2.5625,-25.875,-43.5,-0.24,0.33,9.36,0.0,0.0,-0.001090830782496456,183.75,-1.375,-1.8125,0.0,0.02,-0.41000000000000003,-0.24,0.31,9.790000000000001
1686659324.840012,2.25,-25.1875,-44.25,-0.24,0.34,9.36,-0.001090830782496456,0.002181661564992912,0.001090830782496456,183.75,-1.375,-1.8125,0.0,0.03,-0.41000000000000003,-0.24,0.31,9.790000000000001
1686659324.891344,3.0,-25.1875,-42.6875,-0.25,0.35000000000000003,9.39,-0.001090830782496456,-0.001090830782496456,0.0,183.75,-1.375,-1.8125,-0.01,0.03,-0.4,-0.24,0.31,9.790000000000001
1686659324.941534,3.0,-24.375,-43.875,-0.26,0.33,9.38,-0.001090830782496456,-0.001090830782496456,0.0,183.75,-1.375,-1.8125,0.0,0.04,-0.41000000000000003,-0.24,0.31,9.790000000000001
1686659324.991798,3.0,-24.75,-44.0,-0.24,0.33,9.34,0.0,0.0,0.001090830782496456,183.75,-1.375,-1.8125,-0.03,0.04,-0.42,-0.24,0.31,9.790000000000001
1686659325.042172,4.0625,-24.75,-43.875,-0.25,0.32,9.39,0.0,0.0,0.0,183.75,-1.375,-1.8125,0.0,0.03,-0.4,-0.24,0.31,9.790000000000001
1686659325.092201,3.375,-25.5,-43.875,-0.22,0.34,9.38,0.001090830782496456,0.002181661564992912,-0.001090830782496456,183.75,-1.375,-1.8125,-0.01,0.03,-0.44,-0.24,0.31,9.790000000000001
1686659325.143688,3.0,-25.875,-44.0,-0.25,0.34,9.370000000000001,0.0,0.001090830782496456,-0.001090830782496456,183.75,-1.375,-1.8125,0.0,0.02,-0.41000000000000003,-0.24,0.31,9.790000000000001
1686659325.193713,2.5625,-25.1875,-43.0625,-0.25,0.33,9.4,0.001090830782496456,-0.001090830782496456,0.001090830782496456,183.75,-1.375,-1.8125,0.01,0.03,-0.42,-0.24,0.31,9.790000000000001
1686659325.244386,2.0,-24.375,-43.5,-0.24,0.33,9.39,-0.003272492347489368,-0.001090830782496456,-0.001090830782496456,183.75,-1.375,-1.8125,-0.01,0.04,-0.41000000000000003,-0.24,0.31,9.790000000000001
1686659325.294057,2.5625,-25.5,-44.25,-0.23,0.36,9.38,-0.001090830782496456,0.002181661564992912,0.0,183.75,-1.375,-1.8125,-0.02,0.03,-0.43,-0.24,0.31,9.790000000000001
1686659325.34456,2.5625,-25.1875,-44.25,-0.25,0.33,9.38,0.0,0.001090830782496456,-0.001090830782496456,183.75,-1.375,-1.8125,-0.02,0.04,-0.39,-0.24,0.31,9.790000000000001
1686659325.395729,3.0,-24.75,-43.875,-0.23,0.34,9.36,0.0,0.0,0.0,183.75,-1.375,-1.8125,-0.02,0.03,-0.43,-0.24,0.31,9.790000000000001
1686659325.446038,4.0625,-25.5,-44.6875,-0.24,0.33,9.370000000000001,0.0,-0.002181661564992912,-0.002181661564992912,183.75,-1.375,-1.8125,0.0,0.03,-0.4,-0.24,0.31,9.790000000000001
1686659325.496025,3.0,-25.5,-44.25,-0.24,0.32,9.4,-0.002181661564992912,-0.001090830782496456,0.0,183.75,-1.375,-1.8125,-0.01,0.02,-0.38,-0.24,0.31,9.790000000000001
1686659325.546107,2.0,-25.875,-44.25,-0.25,0.33,9.370000000000001,0.001090830782496456,0.0,-0.001090830782496456,183.75,-1.375,-1.8125,-0.01,0.05,-0.41000000000000003,-0.24,0.31,9.790000000000001
1686659325.59608,3.75,-24.75,-43.875,-0.24,0.34,9.4,0.001090830782496456,-0.001090830782496456,0.0,183.75,-1.375,-1.8125,0.0,0.02,-0.41000000000000003,-0.24,0.31,9.790000000000001
1686659325.646068,2.5625,-25.1875,-43.875,-0.25,0.33,9.39,-0.001090830782496456,0.002181661564992912,0.0,183.75,-1.375,-1.8125,-0.01,0.01,-0.38,-0.24,0.31,9.790000000000001
1686659325.697248,2.25,-25.1875,-43.5,-0.24,0.36,9.36,0.001090830782496456,0.001090830782496456,0.001090830782496456,183.75,-1.375,-1.8125,-0.01,0.01,-0.4,-0.24,0.31,9.790000000000001
1686659325.74749,3.0,-25.875,-44.6875,-0.24,0.34,9.36,-0.001090830782496456,0.002181661564992912,0.0,183.75,-1.375,-1.8125,-0.01,0.01,-0.4,-0.24,0.31,9.790000000000001
1686659325.797547,2.25,-25.1875,-43.875,-0.26,0.34,9.38,-0.003272492347489368,0.004363323129985824,-0.001090830782496456,183.75,-1.375,-1.8125,0.0,0.04,-0.39,-0.24,0.31,9.790000000000001
1686659325.847977,3.0,-25.1875,-43.0625,-0.25,0.34,9.36,-0.001090830782496456,0.002181661564992912,0.002181661564992912,183.75,-1.375,-1.8125,-0.02,0.03,-0.41000000000000003,-0.24,0.31,9.790000000000001
1686659325.897825,3.75,-25.875,-43.375,-0.25,0.35000000000000003,9.370000000000001,-0.001090830782496456,0.001090830782496456,-0.001090830782496456,183.75,-1.375,-1.8125,-0.01,0.03,-0.41000000000000003,-0.24,0.31,9.790000000000001
1686659325.949433,3.375,-24.75,-43.5,-0.24,0.33,9.4,-0.001090830782496456,0.001090830782496456,0.0,183.75,-1.375,-1.8125,-0.01,0.01,-0.41000000000000003,-0.24,0.31,9.790000000000001
1686659325.999201,3.75,-25.875,-43.375,-0.26,0.34,9.4,0.001090830782496456,0.001090830782496456,0.001090830782496456,183.75,-1.375,-1.8125,0.0,0.04,-0.39,-0.24,0.31,9.790000000000001
1686659326.049719,2.25,-25.875,-44.25,-0.26,0.33,9.370000000000001,0.001090830782496456,-0.001090830782496456,0.0,183.75,-1.375,-1.8125,-0.01,0.01,-0.41000000000000003,-0.24,0.31,9.790000000000001
1686659326.09992,3.375,-24.375,-43.875,-0.26,0.33,9.370000000000001,0.001090830782496456,0.002181661564992912,0.0,183.75,-1.375,-1.8125,-0.01,0.02,-0.4,-0.24,0.31,9.790000000000001
1686659326.149804,3.0,-25.1875,-45.0,-0.24,0.33,9.4,0.0,-0.002181661564992912,0.002181661564992912,183.75,-1.375,-1.8125,-0.01,0.01,-0.39,-0.24,0.31,9.790000000000001
1686659326.200941,2.25,-25.1875,-42.6875,-0.24,0.36,9.38,0.0,0.0,0.001090830782496456,183.75,-1.375,-1.8125,-0.01,0.04,-0.43,-0.24,0.31,9.790000000000001
1686659326.251579,3.0,-25.5,-44.5625,-0.23,0.33,9.39,-0.001090830782496456,0.0,-0.001090830782496456,183.75,-1.375,-1.8125,-0.01,0.03,-0.43,-0.24,0.31,9.790000000000001
1686659326.301822,4.0625,-25.1875,-44.5,-0.24,0.36,9.38,-0.001090830782496456,0.001090830782496456,0.001090830782496456,183.75,-1.375,-1.8125,-0.01,0.02,-0.4,-0.24,0.31,9.790000000000001
1686659326.352478,2.25,-25.1875,-44.1875,-0.25,0.32,9.39,0.001090830782496456,0.0,0.0,183.75,-1.375,-1.8125,0.0,0.04,-0.39,-0.24,0.31,9.790000000000001
1686659326.402686,2.25,-25.1875,-43.875,-0.26,0.32,9.39,-0.001090830782496456,0.001090830782496456,-0.001090830782496456,183.75,-1.375,-1.8125,-0.01,0.03,-0.38,-0.24,0.31,9.790000000000001
1686659326.452998,2.5625,-25.1875,-43.875,-0.25,0.35000000000000003,9.4,-0.001090830782496456,-0.003272492347489368,0.001090830782496456,183.75,-1.375,-1.8125,0.0,0.03,-0.4,-0.24,0.31,9.790000000000001
1686659326.504204,3.75,-25.1875,-43.5,-0.26,0.35000000000000003,9.4,0.001090830782496456,-0.001090830782496456,0.0,183.75,-1.375,-1.8125,-0.01,0.0,-0.39,-0.24,0.31,9.790000000000001
1686659326.554781,4.0625,-25.5,-44.1875,-0.24,0.33,9.370000000000001,-0.001090830782496456,0.002181661564992912,-0.002181661564992912,183.75,-1.375,-1.8125,0.0,0.04,-0.41000000000000003,-0.24,0.31,9.790000000000001
1686659326.605023,2.25,-24.75,-43.375,-0.26,0.32,9.35,0.001090830782496456,0.001090830782496456,0.0,183.75,-1.375,-1.8125,0.0,0.02,-0.42,-0.24,0.31,9.790000000000001
1686659326.655611,2.25,-24.75,-43.5,-0.24,0.32,9.38,0.001090830782496456,-0.002181661564992912,-0.001090830782496456,183.75,-1.375,-1.8125,-0.01,0.03,-0.41000000000000003,-0.24,0.31,9.790000000000001
1686659326.705975,2.5625,-24.75,-44.25,-0.25,0.33,9.39,0.0,-0.001090830782496456,0.001090830782496456,183.75,-1.375,-1.8125,0.0,0.05,-0.41000000000000003,-0.24,0.31,9.790000000000001
1686659326.758271,3.0,-25.1875,-43.0625,-0.24,0.33,9.41,0.0,0.0,0.0,183.75,-1.375,-1.8125,0.01,0.02,-0.39,-0.24,0.31,9.790000000000001
1686659326.808392,2.0,-25.1875,-43.375,-0.26,0.34,9.38,0.0,-0.001090830782496456,-0.002181661564992912,183.75,-1.375,-1.8125,-0.01,0.01,-0.4,-0.24,0.31,9.790000000000001
1686659326.859438,3.0,-25.5,-43.0,-0.23,0.32,9.370000000000001,0.001090830782496456,-0.003272492347489368,0.002181661564992912,183.75,-1.375,-1.8125,0.0,0.01,-0.42,-0.24,0.31,9.790000000000001
1686659326.90958,2.0,-25.1875,-43.5,-0.25,0.34,9.39,0.0,0.0,-0.001090830782496456,183.75,-1.375,-1.8125,-0.01,0.0,-0.4,-0.24,0.31,9.790000000000001
1686659326.959836,4.5,-25.875,-45.0,-0.25,0.34,9.38,0.0,-0.001090830782496456,-0.001090830782496456,183.75,-1.375,-1.8125,0.0,0.0,-0.39,-0.24,0.31,9.790000000000001
1686659327.01079,3.0,-24.75,-43.0,-0.25,0.34,9.36,0.0,-0.003272492347489368,0.001090830782496456,,-1.375,-1.8125,0.0,0.04,-0.4,-0.24,0.31,9.790000000000001
1686659327.059437,3.375,-25.875,-43.375,-0.23,0.32,9.39,0.0,-0.001090830782496456,-0.001090830782496456,183.75,-1.375,-1.8125,0.01,0.04,-0.38,-0.24,0.31,9.790000000000001
1686659327.109461,3.75,-24.75,-43.375,-0.26,0.33,9.370000000000001,0.0,-0.002181661564992912,0.001090830782496456,183.75,-1.375,-1.8125,-0.01,0.03,-0.4,-0.24,0.31,9.790000000000001
1686659327.159654,2.25,-25.1875,-44.25,-0.26,0.34,9.35,0.0,0.002181661564992912,0.0,-1864.25,-1.375,-1.8125,-0.01,0.04,-0.4,-0.24,0.31,9.790000000000001
1686659327.209608,3.375,-25.5,-43.0,-0.24,0.35000000000000003,9.39,0.0,0.0,-0.001090830782496456,183.75,-1.375,-1.8125,-0.01,0.02,-0.39,-0.24,0.31,9.790000000000001
1686659327.259729,3.0,-24.75,-44.25,-0.25,0.32,9.39,0.001090830782496456,0.002181661564992912,-0.001090830782496456,183.75,-1.375,-1.8125,-0.01,0.04,-0.39,-0.24,0.31,9.790000000000001
1686659327.310918,2.5625,-25.1875,-43.0,-0.25,0.35000000000000003,9.38,0.0,-0.002181661564992912,0.0,183.75,-1.375,-1.8125,-0.01,0.01,-0.41000000000000003,-0.24,0.31,9.790000000000001
1686659327.361145,2.5625,-24.75,-43.0625,-0.25,0.34,9.39,0.0,0.0,0.001090830782496456,183.75,-1.375,-1.8125,0.0,0.01,-0.38,-0.24,0.31,9.790000000000001
1686659327.411058,2.5625,-25.5,-43.5,-0.25,0.34,9.4,0.001090830782496456,0.002181661564992912,-0.001090830782496456,183.75,-1.375,-1.8125,-0.01,0.03,-0.38,-0.24,0.31,9.790000000000001
1686659327.461442,2.0,-25.1875,-44.6875,-0.24,0.32,9.39,0.001090830782496456,-0.001090830782496456,-0.001090830782496456,183.75,-1.375,-1.8125,-0.02,0.01,-0.41000000000000003,-0.24,0.31,9.790000000000001
1686659327.51132,2.5625,-24.75,-36.1875,-0.22,0.35000000000000003,9.39,0.001090830782496456,0.0,0.001090830782496456,183.75,-1.375,-1.8125,0.0,0.03,-0.4,-0.24,0.31,9.790000000000001
1686659327.563636,2.25,-25.1875,-43.5,-0.22,0.35000000000000003,9.41,0.002181661564992912,-0.001090830782496456,-0.001090830782496456,183.75,-1.375,-1.8125,0.0,0.03,-0.41000000000000003,-0.24,0.31,9.790000000000001
1686659327.613909,3.0,-25.1875,-44.1875,-0.25,0.33,9.38,0.001090830782496456,-0.001090830782496456,0.001090830782496456,183.75,-1.375,-1.8125,0.01,0.02,-0.4,-0.24,0.31,9.790000000000001
1686659327.664047,2.0,-24.75,-44.1875,-0.25,0.34,9.36,-0.001090830782496456,0.001090830782496456,0.0,183.75,-1.375,-1.8125,0.0,0.03,-0.41000000000000003,-0.24,0.31,9.790000000000001
1686659327.714085,3.75,-24.75,-43.375,-0.25,0.33,9.36,0.0,0.0,0.003272492347489368,183.75,-1.375,-1.8125,0.0,0.01,-0.39,-0.24,0.31,9.790000000000001
1686659327.764972,3.0,-24.375,-43.375,-0.25,0.34,9.4,0.001090830782496456,0.001090830782496456,0.003272492347489368,183.75,-1.375,-1.8125,0.01,0.01,-0.4,-0.24,0.31,9.790000000000001
1686659327.816022,3.0,-24.75,-43.5,-0.25,0.33,9.370000000000001,-0.001090830782496456,0.002181661564992912,-0.001090830782496456,183.75,-1.375,-1.8125,-0.01,0.02,-0.42,-0.24,0.31,9.790000000000001
1686659327.866363,2.25,-25.5,-44.1875,-0.24,0.35000000000000003,9.370000000000001,-0.002181661564992912,0.001090830782496456,-0.001090830782496456,183.75,-1.375,-1.8125,-0.01,0.01,-0.41000000000000003,-0.24,0.31,9.790000000000001
1686659327.91706,2.5625,-25.5,-44.5625,-0.26,0.32,9.4,-0.002181661564992912,0.0,0.0,183.75,-1.375,-1.8125,0.0,0.04,-0.41000000000000003,-0.24,0.31,9.790000000000001
1686659327.96809,2.5625,-24.75,-44.1875,-0.25,0.35000000000000003,9.39,0.0,0.002181661564992912,-0.001090830782496456,183.75,-1.375,-1.8125,-0.03,0.04,-0.43,-0.24,0.31,9.790000000000001
1686659328.018301,3.375,-25.1875,-42.6875,-0.24,0.34,9.370000000000001,-0.001090830782496456,0.0,-0.001090830782496456,183.75,-1.375,-1.8125,-0.01,0.03,-0.39,-0.24,0.31,9.790000000000001
1686659328.068838,2.25,-25.1875,-43.375,-0.25,0.34,9.38,-0.001090830782496456,0.0,0.0,183.75,-1.375,-1.8125,-0.01,0.01,-0.41000000000000003,-0.24,0.31,9.790000000000001
1686659328.119694,2.25,-25.1875,-43.875,-0.27,0.34,9.4,-0.001090830782496456,0.001090830782496456,0.0,183.75,-1.375,-1.8125,0.0,0.03,-0.39,-0.24,0.31,9.790000000000001
1686659328.169963,3.75,-25.1875,-44.25,-0.23,0.33,9.4,0.001090830782496456,-0.002181661564992912,0.002181661564992912,183.75,-1.375,-1.8125,-0.01,0.04,-0.39,-0.24,0.31,9.790000000000001
1686659328.220445,3.0,-25.5,-43.0625,-0.25,0.34,9.39,0.001090830782496456,-0.001090830782496456,-0.004363323129985824,183.75,-1.375,-1.8125,-0.01,0.03,-0.43,-0.24,0.31,9.790000000000001
1686659328.270725,3.375,-25.1875,-44.25,-0.23,0.34,9.39,-0.002181661564992912,0.001090830782496456,0.001090830782496456,-1864.25,-1.375,-1.8125,0.0,0.01,-0.42,-0.24,0.31,9.790000000000001
1686659328.320878,3.0,-25.1875,-44.5625,-0.25,0.36,9.39,0.0,-0.001090830782496456,0.0,183.75,-1.375,-1.8125,0.0,0.03,-0.4,-0.24,0.31,9.790000000000001
1686659328.37279,3.0,-24.75,-44.5,-0.25,0.34,9.39,0.0,0.001090830782496456,0.0,183.75,-1.375,-1.8125,-0.01,0.04,-0.37,-0.24,0.31,9.790000000000001
1686659328.422666,2.25,-25.1875,-43.0625,-0.26,0.34,9.4,0.0,0.0,0.001090830782496456,183.75,-1.375,-1.8125,-0.01,0.02,-0.39,-0.24,0.31,9.790000000000001
1686659328.472938,3.375,-25.5,-44.1875,-0.24,0.33,9.39,0.001090830782496456,-0.002181661564992912,0.0,183.75,-1.375,-1.8125,-0.01,0.03,-0.39,-0.24,0.31,9.790000000000001
1686659328.523246,2.5625,-24.0,-43.0625,-0.25,0.33,9.38,0.001090830782496456,-0.001090830782496456,0.0,183.75,-1.375,-1.8125,-0.02,0.0,-0.4,-0.24,0.31,9.790000000000001
1686659328.573408,2.5625,-25.1875,-43.5,-0.23,0.35000000000000003,9.38,-0.001090830782496456,0.0,0.0,183.75,-1.375,-1.8125,-0.01,0.02,-0.4,-0.24,0.31,9.790000000000001
1686659328.624323,3.75,-25.5,-44.1875,-0.24,0.34,9.38,0.0,-0.003272492347489368,-0.002181661564992912,183.75,-1.375,-1.8125,0.0,0.02,-0.4,-0.24,0.31,9.790000000000001
1686659328.673643,3.0,-26.1875,-43.375,-0.25,0.36,9.370000000000001,0.0,0.0,0.001090830782496456,183.75,-1.375,-1.8125,-0.01,0.02,-0.4,-0.24,0.31,9.790000000000001
1686659328.723922,3.375,-24.75,-42.6875,-0.25,0.33,9.39,0.002181661564992912,0.0,0.001090830782496456,183.75,-1.375,-1.8125,-0.01,0.02,-0.4,-0.24,0.31,9.790000000000001
1686659328.77396,3.375,-24.75,-43.875,-0.24,0.34,9.4,-0.001090830782496456,-0.001090830782496456,-0.001090830782496456,,-1.375,-1.8125,0.0,0.03,-0.43,-0.24,0.31,9.790000000000001
1686659328.822068,3.0,-25.5,-44.5,-0.24,0.33,9.38,0.0,0.002181661564992912,0.001090830782496456,183.75,-1.375,-1.8125,0.0,0.02,-0.4,-0.24,0.31,9.790000000000001
1686659328.872461,3.75,-25.1875,-43.375,-0.24,0.34,9.4,0.003272492347489368,0.0,0.0,183.75,-1.375,-1.8125,-0.01,0.03,-0.39,-0.24,0.31,9.790000000000001
1686659328.924238,3.0,-25.5,-44.5,-0.24,0.34,9.39,-0.001090830782496456,0.002181661564992912,-0.001090830782496456,183.75,-1.375,-1.8125,0.0,0.02,-0.39,-0.24,0.31,9.790000000000001
1686659328.974152,3.375,-25.1875,-44.1875,-0.26,0.32,9.4,0.0,0.001090830782496456,-0.001090830782496456,183.75,-1.375,-1.8125,0.0,0.02,-0.41000000000000003,-0.24,0.31,9.790000000000001
1686659329.024442,3.375,-25.1875,-44.1875,-0.26,0.33,9.370000000000001,-0.001090830782496456,0.0,0.001090830782496456,183.75,-1.375,-1.8125,0.01,0.02,-0.41000000000000003,-0.24,0.31,9.790000000000001
1686659329.074843,3.0,-25.5,-44.1875,-0.25,0.34,9.39,0.002181661564992912,-0.001090830782496456,0.0,183.75,-1.375,-1.8125,0.0,0.03,-0.38,-0.24,0.31,9.790000000000001
1686659329.124948,3.0,-25.1875,-44.5625,-0.24,0.33,9.38,0.002181661564992912,0.001090830782496456,0.001090830782496456,183.75,-1.375,-1.8125,-0.01,0.01,-0.4,-0.24,0.31,9.790000000000001
1686659329.175772,3.0,-24.75,-44.5,-0.26,0.34,9.36,-0.001090830782496456,-0.001090830782496456,0.002181661564992912,183.75,-1.375,-1.8125,-0.01,0.03,-0.39,-0.24,0.31,9.790000000000001
1686659329.225912,3.0,-25.5,-43.375,-0.24,0.33,9.38,0.0,0.002181661564992912,0.001090830782496456,183.75,-1.375,-1.8125,-0.01,0.02,-0.43,-0.24,0.31,9.790000000000001
1686659329.276304,3.375,-25.1875,-44.1875,-0.24,0.36,9.38,0.0,-0.002181661564992912,0.001090830782496456,183.75,-1.375,-1.8125,-0.01,0.03,-0.43,-0.24,0.31,9.790000000000001
1686659329.326425,2.5625,-24.75,-44.5,-0.25,0.33,9.4,0.001090830782496456,-0.003272492347489368,-0.001090830782496456,183.75,-1.375,-1.8125,-0.01,0.03,-0.4,-0.24,1.59,9.790000000000001
1686659329.377275,3.375,-25.5,-43.375,-0.25,0.34,9.39,0.002181661564992912,-0.001090830782496456,0.001090830782496456,183.75,-1.375,-1.8125,-0.01,0.02,-0.44,-0.24,0.31,9.790000000000001
1686659329.428894,2.0,-25.5,-43.875,-0.27,0.3,9.4,0.0,-0.003272492347489368,0.0,183.75,-1.375,-1.8125,-0.01,0.01,-0.42,-0.24,0.31,9.790000000000001
1686659329.478865,1.1875,-25.1875,-43.375,-0.23,0.33,9.38,0.001090830782496456,0.002181661564992912,-0.002181661564992912,183.75,-1.375,-1.8125,-0.02,0.01,-0.42,-0.24,0.31,9.790000000000001
1686659329.528963,2.25,-25.5,-43.875,-0.25,0.35000000000000003,9.39,0.0,0.0,0.001090830782496456,183.75,-1.375,-1.8125,-0.01,0.02,-0.43,-0.24,0.31,9.790000000000001
1686659329.579299,2.25,-24.375,-43.375,-0.24,0.34,9.4,0.001090830782496456,0.001090830782496456,0.001090830782496456,183.75,-1.375,-1.8125,-0.01,0.03,-0.41000000000000003,-0.24,0.31,9.790000000000001
1686659329.629476,3.375,-25.5,-44.5,-0.25,0.33,9.39,0.001090830782496456,0.001090830782496456,-0.002181661564992912,183.75,-1.375,-1.8125,0.0,0.04,-0.4,-0.24,0.31,9.790000000000001
1686659329.679354,3.375,-25.5,-43.75,-0.24,0.33,9.38,0.001090830782496456,-0.001090830782496456,-0.001090830782496456,183.75,-1.375,-1.8125,-0.01,0.02,-0.42,-0.24,0.31,9.790000000000001
1686659329.730565,3.375,-25.1875,-44.1875,-0.24,0.34,9.39,0.0,0.001090830782496456,0.001090830782496456,183.75,-1.375,-1.8125,-0.01,0.04,-0.41000000000000003,-0.24,0.31,9.790000000000001
1686659329.780649,3.375,-25.1875,-43.75,-0.26,0.32,9.39,0.002181661564992912,0.001090830782496456,0.001090830782496456,183.75,-1.375,-1.8125,0.0,0.01,-0.41000000000000003,-0.24,0.31,9.790000000000001
1686659329.830002,3.75,-25.5,-44.6875,-0.26,0.35000000000000003,9.39,0.0,0.0,0.0,183.75,-1.375,-1.8125,0.0,0.04,-0.41000000000000003,-0.24,0.31,9.790000000000001
1686659329.880167,3.375,-25.1875,-43.5,-0.27,0.33,9.4,-0.001090830782496456,0.0,-0.002181661564992912,183.75,-1.375,-1.8125,-0.02,0.01,-0.42,-0.24,0.31,9.790000000000001
1686659329.9303,4.0625,-25.5,-43.375,-0.26,0.32,9.4,0.002181661564992912,-0.002181661564992912,0.001090830782496456,183.75,-1.375,-1.8125,0.0,0.02,-0.42,-0.24,0.31,9.790000000000001
1686659329.981396,3.375,-25.5,-43.875,-0.25,0.33,9.39,0.0,0.0,0.0,183.75,-1.375,-1.8125,0.0,0.02,-0.41000000000000003,-0.24,0.31,9.790000000000001
1686659330.031239,3.375,-24.75,-43.75,-0.26,0.33,9.4,0.0,0.0,0.001090830782496456,183.75,-1.375,-1.8125,0.0,0.01,-0.41000000000000003,-0.24,0.31,9.790000000000001
1686659330.081525,3.0,-25.5,-43.75,-0.26,0.33,9.4,0.003272492347489368,-0.002181661564992912,0.002181661564992912,183.75,-1.375,-1.8125,-0.02,0.01,-0.38,-0.24,0.31,9.790000000000001
1686659330.13085,2.5625,-25.875,-44.25,-0.25,0.33,9.370000000000001,0.001090830782496456,0.0,0.001090830782496456,183.75,-1.375,-1.8125,0.0,0.02,-0.4,-0.24,0.31,9.790000000000001
1686659330.180514,3.375,-24.75,-44.1875,-0.25,0.33,9.39,0.001090830782496456,0.002181661564992912,0.0,183.75,-1.375,-1.8125,-0.01,0.02,-0.42,-0.24,0.31,9.790000000000001
1686659330.232326,2.5625,-25.875,-44.1875,-0.27,0.34,9.39,0.002181661564992912,-0.003272492347489368,-0.001090830782496456,183.75,-1.375,-1.8125,0.0,0.01,-0.42,-0.24,0.31,9.790000000000001
1686659330.282634,3.0,-25.5,-43.375,-0.25,0.33,9.36,0.0,0.001090830782496456,-0.002181661564992912,183.75,-1.375,-1.8125,-0.01,0.03,-0.39,-0.24,0.31,9.790000000000001
1686659330.332819,4.0625,-24.75,-43.0,-0.26,0.33,9.41,0.002181661564992912,0.0,-0.002181661564992912,183.75,-1.375,-1.8125,-0.02,0.02,-0.4,-0.24,0.31,9.790000000000001
1686659330.383206,2.5625,-25.1875,-43.75,-0.26,0.32,9.4,0.001090830782496456,0.0,0.0,183.75,-1.375,-1.8125,-0.01,0.03,-0.42,-0.24,0.31,9.790000000000001
1686659330.433122,2.5625,-24.75,-43.875,-0.26,0.34,9.39,-0.001090830782496456,0.001090830782496456,-0.001090830782496456,183.75,-1.375,-1.8125,0.0,0.02,-0.43,-0.24,0.31,9.790000000000001
1686659330.483702,3.375,-25.5,-44.1875,-0.26,0.33,9.4,-0.002181661564992912,0.0,-0.002181661564992912,183.75,-1.375,-1.8125,-0.01,0.02,-0.42,-0.24,0.31,9.790000000000001
1686659330.534618,3.375,-24.75,-45.0,-0.23,0.33,9.39,-0.001090830782496456,0.002181661564992912,0.0,183.75,-1.375,-1.8125,-0.02,0.02,-0.4,-0.24,0.31,9.790000000000001
1686659330.585171,4.0625,-25.1875,-43.375,-0.26,0.33,9.39,0.002181661564992912,0.001090830782496456,-0.001090830782496456,183.75,-1.375,-1.8125,-0.02,0.03,-0.43,-0.24,0.31,9.790000000000001
1686659330.635367,3.375,-24.75,-43.75,-0.24,0.36,9.39,0.0,0.002181661564992912,0.0,183.75,-1.375,-1.8125,-0.01,0.01,-0.42,-0.24,0.31,9.790000000000001
1686659330.685503,2.5625,-24.75,-43.375,-0.27,0.34,9.39,0.002181661564992912,0.0,-0.001090830782496456,183.75,-1.375,-1.8125,0.0,0.02,-0.41000000000000003,-0.24,0.31,9.790000000000001
1686659330.735659,3.375,-25.875,-43.375,-0.24,0.32,9.4,0.001090830782496456,-0.001090830782496456,0.0,-1864.25,-1.375,-1.8125,-0.02,0.02,-0.42,-0.24,0.31,9.790000000000001
1686659330.786887,3.0,-24.375,-43.875,-0.25,0.35000000000000003,9.36,0.001090830782496456,-0.001090830782496456,0.001090830782496456,183.75,-1.375,-1.8125,-0.02,0.03,-0.43,-0.24,0.31,9.790000000000001
1686659330.837043,3.75,-25.5,-44.1875,-0.26,0.34,9.39,0.0,0.001090830782496456,0.0,183.75,-1.375,-1.8125,-0.02,0.03,-0.38,-0.24,0.31,9.790000000000001
1686659330.8877,3.375,-25.5,-43.875,-0.24,0.32,9.38,0.001090830782496456,-0.001090830782496456,0.0,-1960.25,-1.375,-1.8125,0.01,0.03,-0.43,-0.24,0.31,9.790000000000001
1686659330.937876,3.75,-25.1875,-43.875,-0.26,0.33,9.39,0.0,-0.002181661564992912,-0.003272492347489368,183.75,-1.375,-1.8125,-0.01,0.03,-0.42,-0.24,0.31,9.790000000000001
1686659330.988107,1.5625,-24.75,-43.875,-0.24,0.33,9.39,0.001090830782496456,0.0,0.0,183.75,-1.375,-1.8125,-0.01,0.02,-0.4,-0.24,0.31,9.790000000000001
1686659331.038497,2.25,-24.375,-45.0625,-0.24,0.33,9.4,0.0,0.002181661564992912,0.0,183.75,-1.375,-1.8125,-0.01,0.03,-0.41000000000000003,-0.24,0.31,9.790000000000001
1686659331.089519,3.375,-24.75,-43.75,-0.24,0.33,9.39,-0.001090830782496456,0.0,0.0,183.75,-1.375,-1.8125,0.0,0.03,-0.43,-0.24,0.31,9.790000000000001
1686659331.140389,4.5,-24.375,-44.5,-0.25,0.32,9.4,0.0,0.0,0.0,183.75,-1.375,-1.8125,-0.01,0.02,-0.4,-0.24,0.31,9.790000000000001
1686659331.192413,3.0,-24.0,-44.1875,-0.25,0.36,9.39,0.0,0.0,-0.001090830782496456,183.75,-1.375,-1.8125,0.0,0.03,-0.41000000000000003,-0.24,0.31,9.790000000000001
